Time (s),ESC signal (µs),Servo 1 (µs),Servo 2 (µs),Servo 3 (µs),AccX (g),AccY (g),AccZ (g),Torque (N·m),Thrust (N),Voltage (V),Current (A),Motor Electrical Speed (RPM),Motor Optical Speed (RPM),Electrical Power (W),Mechanical Power (W),Motor Efficiency (%),Propeller Mech. Efficiency (N/W),Overall Efficiency (N/W),Left Load Cell (mV),Right Load Cell (mV),Thrust Load Cell (mV),Vibration (g),Burst Current Cutoff (A),Pin State 1,Pin State 2,Pin State 3,Pin State 4,Debug 0,Debug 1,Debug 2,Debug 3,App message,
0,1000,,,,-0.0626953125,-0.023828125,-0.9630859375,0.00046208649592593704,0.00842563912416636,12.501225971124976,0.045562311836142004,0,0,0.444538666194509,0,0,0,0,0.5658534352786742,-0.23143697184708625,-0.3643343359198503,0.071484375,0.04335628798879772,0.1,0,1,1,0,0,0,0,,
0.35544519150000997,1000,,,,-0.0625,-0.01640625,-0.9693359375,0.00013120650801362225,0.021668543259663914,12.500649206267838,0.04736588987019396,0,0,0.4590937371537958,0,0,0,0,0.5678300240076498,-0.23105737913045443,-0.36558477431228653,0.0716796875,0.04373957927645943,0.1,0,1,1,0,0,0,0,,
0.6046686914999736,1000,,,,-0.0625,-0.030078125,-0.958203125,0.0001720670803304695,0.01800144354396166,12.501130203610611,0.04571551085592366,0,0,0.4216152680136962,0,0,0,0,0.567653638139257,-0.23116256423498832,-0.36523851474365343,0.0705078125,0.04386616812451346,0,0,1,1,0,0,0,0,,
0.8547196915000213,1000,,,,-0.0625,-0.0341796875,-0.9556640625,0.00042906114428687553,-0.019884376192804122,12.501387894818183,0.04529235236144481,0,0,0.43904160444167317,0,0,0,0,0.5657321959168538,-0.2311247619907196,-0.3616612115295661,0.0677734375,0.043956788246308734,0.1,0,1,1,0,0,0,0,,
1.1055476915000473,1000,,,,-0.0625,-0.0326171875,-0.9552734375,0.0006691695526170352,0.018519063334055015,12.50126375265299,0.04690834731664525,0,0,0.47282372566939596,0,0,0,0,0.5641368361652424,-0.23126154757033354,-0.3652873900999647,0.0658203125,0.04417037119940878,0,0,1,1,0,0,0,0,,
1.3593916915000417,1000,,,,-0.0625,-0.037890625,-0.9490234375,0.0006880440005135703,-0.0061055250660722645,12.501006985986676,0.04939503875007137,0,0,0.4831446289489801,0,0,0,0,0.5638763363687114,-0.23115595496189853,-0.3629622557926853,0.0634765625,0.04465042907555117,0,0,1,1,0,0,0,0,,
1.6256856914999893,1000,,,,-0.0625,-0.0365234375,-0.9529296875,0.0005431360887249967,-0.003155491407336698,12.500777282676925,0.04591117667537911,0,0,0.43255419855359556,0,0,0,0,0.5648082089338998,-0.23104675391211654,-0.36324080763509986,0.062109375,0.044685603514517766,0,0,1,1,0,0,0,0,,
1.880279191499995,1010,,,,-0.0625,-0.0380859375,-0.950390625,0.00040609504705660653,-0.004783500416252935,12.501343616448368,0.043378444631002384,0,0,0.4072297664979276,0,0,0,0,0.5657721031703259,-0.23101462908289108,-0.36308708569109494,0.060546875,0.04456792072318378,0,0,1,1,0,0,0,0,,
2.12919819150006,1100,,,,-0.059765625,-0.0123046875,-0.9560546875,0.0010921585647272643,-0.01567656081782487,12.49289891361494,0.2536413405425423,0,0,3.0453425083303345,0,0,0,0,0.5664720337441627,-0.23593412863442625,-0.3620585272421411,0.068359375,0.0603333847470658,0.1,0,1,1,0,0,0,0,,
2.38125219149997,1100,,,,-0.0599609375,-0.0140625,-0.9591796875,0.014458260525913567,-0.0026536658913482673,12.492642219688403,0.2694090798084621,200,0,3.2240234798336282,0.3452272047644108,11.83698063787492,14.945799531741999,0.003308367993070951,0.5496934588977725,-0.3055831677379658,-0.3632881916443078,0.09140625,0.0791574607861265,0.1,0,1,1,0,0,0,0,,
2.631837191500049,1100,,,,-0.077734375,-0.0072265625,-0.9638671875,0.01486048389223096,0.030403372455481855,12.495096570224701,0.20368650943423156,523,0,2.416140557799375,0.8099106177583737,33.59019498703603,0.03806273562552715,0.01294653094802419,0.5225417882579414,-0.2847301132262718,-0.3664095455003935,0.10234375,0.08759628781484534,0,0,1,1,0,0,0,0,,
2.8825596915000355,1100,,,,-0.0705078125,-0.0005859375,-0.96171875,0.010730264270487958,0.07349653449096462,12.495303356997745,0.17844211865691464,606,0,2.111798342086529,0.6790346226851918,32.132711175282715,0.11048215357213716,0.03496075282379548,0.5315511135567174,-0.2665019540752561,-0.3704785430336611,0.1080078125,0.09405533824098984,0.2,0,1,1,0,0,0,0,,
3.133089691500017,1100,,,,-0.0546875,-0.02890625,-0.952734375,0.00852971535042545,0.11651169834415082,12.495955628152192,0.17281368471213993,658,0,2.0436498759370307,0.5875524593104532,28.74524884534686,0.1986667043308843,0.05703833650956862,0.5377021170297073,-0.25795357254262735,-0.3745401757230329,0.122265625,0.09993498192696101,0.1,0,1,1,0,0,0,0,,
3.379302691500005,1100,,,,-0.0849609375,-0.019921875,-0.953125,0.006967802491017874,0.12007519886468104,12.495882626525361,0.17531001828033554,694,0,2.06901042189741,0.5061123750387837,24.478365150506516,0.23806957720591063,0.05804786368378009,0.5427127168843232,-0.25244132672211744,-0.3748766531162651,0.1615234375,0.10547431250345973,0,0,1,1,0,0,0,0,,
3.631447191500012,1100,,,,-0.067578125,-0.016015625,-0.9578125,0.006074840641071574,0.1459356437255524,12.495084914074507,0.17880822881611486,720,0,2.111288041774584,0.4576815102326792,21.679427972763513,0.3193752136724201,0.0691479494576651,0.5458906653839141,-0.2495597730911625,-0.3773184810392531,0.178125,0.11116133939820913,0.1,0,1,1,0,0,0,0,,
3.8805366914999673,1100,,,,-0.085546875,-0.014453125,-0.961328125,0.005548139819779703,0.16192023867894298,12.495247151850673,0.1752189575801906,738,0,2.0559589996685146,0.4284832781181538,20.842455475433162,0.3782529385835817,0.07877239916301541,0.5481041860213531,-0.24815213240214015,-0.3788277988605369,0.1720703125,0.11595282823837669,0.1,0,1,1,0,0,0,0,,
4.131233191499976,1100,,,,-0.0583984375,-0.019921875,-0.95546875,0.005182182928870849,0.16765122916400443,12.495935420474973,0.1696599149948916,751,0,1.997818963315486,0.4076263277255704,20.402658774148414,0.41142256528382903,0.08392546642360563,0.5493606560736789,-0.24693164861433906,-0.3793689377569514,0.1703125,0.11997554892599849,0,0,1,1,0,0,0,0,,
4.379413191500003,1100,,,,-0.073828125,-0.00625,-0.9611328125,0.005093383769175773,0.18506262856238495,12.496308046563225,0.16722312928398364,761,0,1.9611905575584045,0.4059605662520093,20.700336415492494,0.4558580504625027,0.09436100130250474,0.548819231673168,-0.24590663504160948,-0.3810129791281652,0.165234375,0.12343302805466519,0,0,1,1,0,0,0,0,,
4.6332771915000155,1100,,,,-0.0666015625,-0.0111328125,-0.9576171875,0.005106005155535396,0.17731924654472447,12.495749150498032,0.17273620276441592,768,0,2.034945562840093,0.4106550426554523,20.185299890020598,0.4317656835627469,0.08717399372006565,0.548733277647276,-0.24591202236388104,-0.3802818236306163,0.1646484375,0.12725397209639813,0,0,1,1,0,0,0,0,,
4.880064691499969,1100,,,,-0.0658203125,-0.0244140625,-0.9607421875,0.004873080294091684,0.1806878959551304,12.495660956226136,0.17255493662611388,773,0,2.0316580417356116,0.3943052719193568,19.410924643311322,0.4586515518479711,0.08905273886988842,0.5505566310178979,-0.2460167904890263,-0.3805999025436953,0.1625,0.1307437003831326,0.1,0,1,1,0,0,0,0,,
5.129860191500047,1100,,,,-0.0724609375,-0.0255859375,-0.9611328125,0.004729418220943195,0.1916842369628118,12.495764420011218,0.1692415904333808,776,0,1.9868388393000136,0.38443948452863114,19.349679074308433,0.4986123050731111,0.09648103936380388,0.5512344760718821,-0.24569665209216401,-0.3816382130858268,0.1599609375,0.1335305034347818,0.1,0,1,1,0,0,0,0,,
5.3794546915000305,1100,,,,-0.06171875,-0.01640625,-0.9572265625,0.004665837325448351,0.18520919457441204,12.49530953573446,0.16926023006349383,779,0,1.983034430258419,0.38054009234063624,19.19157966342021,0.4867284272500013,0.09340165051362745,0.55137502865289,-0.24541765045158126,-0.38102681837117325,0.1583984375,0.13622740966304606,0,0,1,1,0,0,0,0,,
5.628805191499996,1100,,,,-0.0126953125,-0.022265625,-0.9564453125,0.004652708814631654,0.18002266604626024,12.495744262969913,0.17075967028455272,781,0,1.9982282132769995,0.3803076111044905,19.034749436274858,0.4733717411318,0.09010259209854653,0.5515234083326714,-0.24546283516441275,-0.3805370893563961,0.1474609375,0.138822663535093,0,0,1,1,0,0,0,0,,
5.880399691500003,1100,,,,-0.07890625,-0.0103515625,-0.95859375,0.004671757712903487,0.17784468080856738,12.495455271523719,0.17414869176943656,782,0,2.034820046424638,0.3826065260491764,18.80780152314971,0.4648466475284606,0.08741629464586324,0.5515874162342186,-0.2456378159924038,-0.3803314368551392,0.1443359375,0.14161763953789344,0,0,1,1,0,0,0,0,,
6.129220691499998,1100,,,,-0.0845703125,-0.012109375,-0.9595703125,0.004637141499703581,0.19405147244131257,12.495492605787787,0.1723966635779606,783,0,2.0262326591850828,0.38022206882032716,18.76967241821886,0.5103886978403539,0.09584838386666832,0.5517793532479454,-0.2455853133881288,-0.3818617352148075,0.1462890625,0.14391414348535086,0,0,1,1,0,0,0,0,,
6.381131191499997,1100,,,,-0.0751953125,-0.0134765625,-0.9609375,0.004633051978401508,0.20339490751509054,12.495639004453746,0.17065875033449526,784,0,2.0182477517178135,0.380196012505913,18.83854713688736,0.535002669420736,0.10078177186987257,0.552017098442618,-0.24576433551823013,-0.382743972963714,0.1458984375,0.14587019659216463,0,0,1,1,0,0,0,0,,
6.63086719150003,1100,,,,-0.0681640625,-0.0173828125,-0.9609375,0.004639361708408229,0.20037916142219023,12.495391850107541,0.1692704213310799,784,0,1.9789594899568246,0.3808593529177804,19.24866464136765,0.5262583485866213,0.1012597613871609,0.5517732902994357,-0.24559406130422765,-0.3824592163379906,0.144921875,0.147659513401096,0.1,0,1,1,0,0,0,0,,
6.886832691500032,1100,,,,-0.0677734375,-0.008203125,-0.9615234375,0.004846734878157998,0.198693171499632,12.495293092383088,0.172305279990573,784,0,2.006579916243605,0.39814457029724876,19.846094957775275,0.49905538305637126,0.09904712264589277,0.5503893696285684,-0.2457069751023601,-0.38230001964617316,0.1447265625,0.14950327305968633,0,0,1,1,0,0,0,0,,
7.144610191499977,1100,,,,-0.072265625,-0.0169921875,-0.9572265625,0.004965486348658629,0.1969596305256404,12.495128856971627,0.17639361755840885,785,0,2.054320477179585,0.40806220149433187,19.86509766317359,0.48271263562007005,0.095880280881978,0.5493336170201701,-0.24554491111142504,-0.38213633302830147,0.147265625,0.1517279812978462,0,0,1,1,0,0,0,0,,
7.404219191500031,1100,,,,-0.06484375,-0.0212890625,-0.9603515625,0.004994095171676373,0.19040067489530973,12.495289383215486,0.17312841126346604,785,0,2.0234555893379564,0.4105767378881799,20.29119283046659,0.46376400064800427,0.09409905573359735,0.5490677680907082,-0.24549596016708422,-0.38151701495044377,0.146875,0.1533701486499332,0.1,0,1,1,0,0,0,0,,
7.656169191499986,1100,,,,-0.0669921875,-0.0234375,-0.95703125,0.0049145615395897475,0.19151129401553557,12.495362581834863,0.1734274414772089,785,0,2.0381390059568583,0.40411408446535624,19.831347450658207,0.4739231470609961,0.09397501696230294,0.5495157499639455,-0.24538135157986804,-0.381621883246181,0.1458984375,0.15486410785932755,0.1,0,1,1,0,0,0,0,,
7.904579191500041,1100,,,,-0.0646484375,-0.0095703125,-0.9646484375,0.004803133468263313,0.19542094761635867,12.495045933094337,0.17397029018090615,786,0,2.042761202700952,0.39511157573078853,19.342805948455283,0.49474867672022,0.09566923624790304,0.5503967448572016,-0.2454389876506474,-0.3819910455472576,0.14375,0.1563174531537404,0,0,1,1,0,0,0,0,,
8.156623191499966,1100,,,,-0.06640625,-0.0134765625,-0.9640625,0.004618784162133722,0.19971643329816835,12.495182676296544,0.17574338559445354,786,0,2.0616192513584286,0.38037736945292877,18.45337199017877,0.5251245359318164,0.09688095906791848,0.5514707880275191,-0.2452040637217884,-0.38239663937741286,0.140234375,0.15781191567113723,0,0,1,1,0,0,0,0,,
8.405573191499988,1100,,,,-0.0638671875,0.003125,-0.9474609375,0.0045376450391105645,0.20318107735064647,12.495349310613332,0.172569664623924,786,0,2.044993031598737,0.3736586583074608,18.27437546413416,0.5437615038959261,0.09936501748562691,0.5523584311398867,-0.24545800291094128,-0.38272378241907623,0.1423828125,0.15892998964564398,0.1,0,1,1,0,0,0,0,,
8.670449191500037,1100,,,,-0.0548828125,-0.015625,-0.9509765625,0.004522309838347971,0.20457433986568796,12.496149362407815,0.1714983015319997,786,0,2.01839617462598,0.37227411813304445,18.446536506657267,0.5495544157472965,0.10135782979179475,0.5528229760206558,-0.24576159416211724,-0.3828553388300964,0.142578125,0.15985375081852177,0,0,1,1,0,0,0,0,,
8.932773191500036,1100,,,,-0.1017578125,-0.028515625,-0.964453125,0.004522753599472057,0.20957310232725096,12.496053718883395,0.17231865824353929,786,0,2.0188673159759816,0.37242889860256156,18.449469757452242,0.5627796264997281,0.10381340453220343,0.5520535881509308,-0.24510176630457386,-0.38332733835774163,0.14609375,0.16089485024475642,0,0,1,1,0,0,0,0,,
9.180295691499998,1100,,,,-0.0865234375,-0.027734375,-0.962109375,0.004600321193316942,0.19241087653290131,12.495371922994156,0.1732728397337376,787,0,2.036462026210971,0.3789341952823225,18.60831852832988,0.5077689184994338,0.09449537830304494,0.5516534479013406,-0.2452452072639561,-0.38170682477451734,0.1498046875,0.16179984538743894,0,0,1,1,0,0,0,0,,
9.433761191500002,1100,,,,-0.0775390625,-0.0150390625,-0.965234375,0.004570109488108932,0.1872253974130314,12.495226590210843,0.1745656494917805,787,0,2.052590033028326,0.3764749722405365,18.342213669708936,0.4973119413337931,0.09121778936273944,0.5517767030548185,-0.24516126685251743,-0.38121719484830796,0.149609375,0.16280140797054368,0.1,0,1,1,0,0,0,0,,
9.683158691500036,1100,,,,-0.0521484375,-0.0193359375,-0.9484375,0.0045331311142363185,0.1908878011522727,12.49515618261243,0.17242681896358963,786,0,2.0325540524069416,0.3733469484675736,18.36882494016996,0.5112872162732358,0.0939166013193691,0.5516635308045024,-0.24483113229662729,-0.38156301100745943,0.147265625,0.1635196854445808,0.1,0,1,1,0,0,0,0,,
9.934877691499981,1100,,,,-0.0892578125,-0.0298828125,-0.9658203125,0.004596983216508356,0.19335244337133906,12.495557657496045,0.17119827213848812,787,0,2.0225945325754884,0.3790341785333613,18.740328583775458,0.5101961020914458,0.09560129240602928,0.5514172092515386,-0.24502074894240686,-0.38179573059999034,0.146875,0.1640653101913449,0,0,1,1,0,0,0,0,,
10.182807191499998,1100,,,,-0.0814453125,-0.02734375,-0.960546875,0.004478403231593471,0.19088681552412434,12.495741805282895,0.17485465167104192,787,0,2.0526710464566214,0.36905880098958077,17.98086333033179,0.5173310039638257,0.09299816279936476,0.5518208214354448,-0.24462224895269397,-0.3815629179412207,0.15078125,0.16490260034168078,0,0,1,1,0,0,0,0,,
10.430026191499945,1100,,,,-0.0609375,-0.0201171875,-0.96328125,0.004434274480457545,0.18928736584079578,12.49577171065223,0.17504233539284797,778,0,2.048007424106915,0.361376157210645,17.646536410827004,0.5242241026586578,0.09242921141344859,0.5522252072774407,-0.2446928609714043,-0.3814118926622985,0.1505859375,0.1656928716554661,0,0,1,1,0,0,0,0,,
10.681180691500009,1100,,,,-0.041015625,-0.0080078125,-0.9533203125,0.004423687750482362,0.19728351103043973,12.49541862813324,0.17356062343744005,787,0,2.0446768326201488,0.36443537011677174,17.826810462203348,0.5413521355404448,0.0964958820042422,0.5522866785446043,-0.24467919037860977,-0.3821669148866022,0.148828125,0.1662497161396085,0.1,0,1,1,0,0,0,0,,
10.931496191500035,1100,,,,-0.08125,-0.0125,-0.9658203125,0.004518242561152462,0.20513286674434034,12.495773922360243,0.17309612805214894,787,0,2.0284963285461473,0.3721704095916952,18.351080111760815,0.551219383050702,0.10115124469838528,0.5520568450728278,-0.24507618789863278,-0.3829080767677216,0.1474609375,0.1667918576712665,0.1,0,1,1,0,0,0,0,,
11.18122819149997,1100,,,,-0.0712890625,-0.0162109375,-0.95546875,0.004598474738872642,0.2028045875702716,12.495592259710374,0.17218282547662567,787,0,2.015806367948762,0.3788467868558646,18.794497287298153,0.5353344461639885,0.10060679020055642,0.5515069992317371,-0.24510746340587808,-0.3826882330206267,0.1494140625,0.16719168971554293,0.2,0,1,1,0,0,0,0,,
11.431397691499978,1100,,,,-0.1037109375,-0.0193359375,-0.9658203125,0.004667741320544256,0.19403071510599434,12.495245984907394,0.17575116579433617,787,0,2.0787588818706153,0.3845408417429249,18.498777172380606,0.5046234055842566,0.09334011955887385,0.551032899720649,-0.2451349786162166,-0.38185977523920545,0.1494140625,0.16786526188230222,0.4,0,1,1,0,0,0,0,,
11.680626691499956,1100,,,,-0.0845703125,-0.028515625,-0.9541015625,0.004708412208144816,0.19404274979496683,12.495038580734638,0.17436715125392538,787,0,2.032467719289898,0.38785570648453405,19.086809889722662,0.5003047868823265,0.09548125247669832,0.5505953574686622,-0.2450140544892126,-0.38186091159396407,0.153515625,0.16836239650858692,0.1,0,1,1,0,0,0,0,,
11.931231691499985,1100,,,,-0.0859375,-0.0380859375,-0.963671875,0.004759364884462876,0.1834972645748855,12.495037169331871,0.1739254975672735,787,0,2.03293817351809,0.39204480644628986,19.285057387990943,0.46810230537808223,0.0902715335909626,0.5504620517595354,-0.24521984084525772,-0.3808651723323083,0.1541015625,0.16874234524827753,0,0,1,1,0,0,0,0,,
12.18146719150003,1100,,,,-0.0875,-0.02734375,-0.9603515625,0.004849969068752265,0.17847613461564465,12.495334766395706,0.171988989689628,787,0,2.028674703512774,0.3997790168149423,19.7088405777251,0.4464498963959411,0.08798531583568821,0.5500501357507217,-0.2454351661391188,-0.38039106079225604,0.1525390625,0.16900633155576256,0.2,0,1,1,0,0,0,0,,
12.429332691500012,1100,,,,-0.053125,-0.0107421875,-0.94140625,0.004880168418295217,0.18734301860295732,12.495078448003081,0.17136341123001886,787,0,2.0279671577259055,0.40241577733898487,19.844442800112237,0.4655375259446264,0.09237443809187539,0.550313729723362,-0.24585219492148042,-0.3812283010263896,0.1513671875,0.169128353646202,0.1,0,1,1,0,0,0,0,,
12.678753191499995,1100,,,,-0.0736328125,-0.009375,-0.9541015625,0.0047245650976394694,0.19307229212963894,12.495497997788608,0.17776627168907863,788,0,2.1045889436730976,0.38986777376890674,18.529893447173027,0.49542744712327685,0.0917468749640151,0.5513464280559104,-0.24576253275367174,-0.3817692778019691,0.1470703125,0.16982712324416313,0,0,1,1,0,0,0,0,,
12.931593691499998,1100,,,,-0.0646484375,-0.0244140625,-0.9556640625,0.004565159243244234,0.19345708780078333,12.496219613170314,0.17286818096072815,787,0,2.029489579388938,0.37643449771564874,18.55076671918206,0.5139342687901571,0.0953414953856747,0.5520869375799945,-0.24539730332028814,-0.3818056114698352,0.14765625,0.17006441472672526,0.1,0,1,1,0,0,0,0,,
13.195441191500006,1100,,,,-0.0810546875,-0.0201171875,-0.9615234375,0.004552408979341794,0.19846291802917035,12.495764260852212,0.17295127740572197,788,0,2.0461226026780035,0.37554447268040647,18.354871315449955,0.5284619328006565,0.09699594217055885,0.551744812017137,-0.24502243007494767,-0.38227827835917816,0.1474609375,0.1702852200601927,0.1,0,1,1,0,0,0,0,,
13.455677191499992,1100,,,,-0.0546875,-0.00859375,-0.9474609375,0.004653972223231711,0.2011495288141312,12.495537594389015,0.17220655536140778,788,0,2.023081497849372,0.383827496423348,18.975435407387096,0.5240713035174527,0.09943954112753517,0.5512788168125577,-0.24526013492675164,-0.3825319569508735,0.14921875,0.17042834133026982,0.1,0,1,1,0,0,0,0,,
13.705284191499999,1100,,,,-0.07890625,0.003125,-0.96484375,0.0046199611427180255,0.2008899217642108,12.495562911389367,0.17505470489291794,787,0,2.0474194439973967,0.3808203631819895,18.600824677756624,0.5275594854170359,0.09812144769301422,0.551581324056511,-0.24530666621624292,-0.3825074440027432,0.1505859375,0.17081298604690356,0,0,1,1,0,0,0,0,,
13.956344191500056,1100,,,,-0.071875,-0.0029296875,-0.9599609375,0.00456785013671703,0.20096075604008506,12.49596919093413,0.17083760609069826,787,0,2.0140844398658944,0.37666500072717973,18.702405957448615,0.5335400322290736,0.09978048096331048,0.5516769988221555,-0.2450611827711146,-0.3825141324071254,0.1478515625,0.1707592042160359,0.1,0,1,1,0,0,0,0,,
14.204945691499976,1100,,,,-0.0634765625,-0.00859375,-0.953125,0.004441744507265033,0.19998036093840776,12.495689263905133,0.16939836730420166,787,0,2.00065772110461,0.3661061704128071,18.300778290542674,0.5462800717204837,0.09997192233227176,0.5524998585072713,-0.24497640014118618,-0.3824215602898352,0.1455078125,0.17063666742711472,0.1,0,1,1,0,0,0,0,,
14.45552769149998,1100,,,,-0.0619140625,-0.03046875,-0.955859375,0.004392256401991155,0.19316212842686184,12.495800460397806,0.17029970161441443,787,0,2.000968822954368,0.3618889433514142,18.0878989015637,0.5337685032354192,0.096540809309911,0.5529103303595827,-0.24501853266348056,-0.38177776043945805,0.14609375,0.1706253372886068,0.2,0,1,1,0,0,0,0,,
14.7059006915,1100,,,,-0.0517578125,0.00390625,-0.9578125,0.004420123060131946,0.19228076209800432,12.49510461410841,0.17509661131695003,786,0,2.059463981091585,0.36400446972778466,17.677485449607655,0.5282903308852545,0.09339219643315638,0.5527393103805528,-0.24504658157890713,-0.3816945389433174,0.1474609375,0.17096053962971702,0,0,1,1,0,0,0,0,,
14.954107191499972,1100,,,,-0.061328125,-0.001953125,-0.96015625,0.004409359754467207,0.1922159175026678,12.495597311434848,0.17641897564333825,787,0,2.074537168349374,0.36320397663284665,17.50851031092594,0.5292233543842413,0.09265907133286895,0.5531513135955468,-0.24533368864066615,-0.38168841610419385,0.147265625,0.17145556940515308,0.1,0,1,1,0,0,0,0,,
15.206973691499957,1100,,,,-0.046484375,0.002734375,-0.9603515625,0.004485358099264898,0.19017508169303887,12.495941172170829,0.1747414255112198,787,0,2.04856887520127,0.3694739344369028,18.041415703046777,0.5147680348305754,0.09285582614070063,0.5531311416689391,-0.24579449607338782,-0.3814957137012384,0.1490234375,0.17170840369750165,0,0,1,1,0,0,0,0,,
15.45867869150003,1100,,,,-0.0556640625,-0.00234375,-0.9607421875,0.004547230396650064,0.19137926660280064,12.495920205195187,0.17466948196497387,787,0,2.045536864273898,0.37474175274491034,18.320752932869727,0.5106965915153339,0.09356353257049133,0.5525665964945687,-0.2456975920633629,-0.3816094167853468,0.1462890625,0.1719084506295653,0.1,0,1,1,0,0,0,0,,
15.70654369150002,1100,,,,-0.1015625,-0.018359375,-0.9556640625,0.004674583677595349,0.19182133908291724,12.495165490439955,0.1728585549136512,788,0,2.0103264656799014,0.38574361635821525,19.18743894881494,0.4975195450867724,0.09542318065097634,0.551901904715459,-0.24592644385404908,-0.3816511587171558,0.1482421875,0.17192888351035812,0.2,0,1,1,0,0,0,0,,
15.955945191499964,1100,,,,-0.05,-0.0080078125,-0.9525390625,0.004829464832185879,0.1947448633710641,12.495136147471365,0.1760431329901111,788,0,2.058525756637754,0.3984116896314545,19.355142938822958,0.4888189902617243,0.09460083364933335,0.5503581743126966,-0.24557144596486613,-0.38192720745795417,0.148046875,0.1722758725668288,0,0,1,1,0,0,0,0,,
16.206457691500038,1100,,,,-0.076171875,-0.0119140625,-0.9673828125,0.00483929245320947,0.19834541774601555,12.494988215541634,0.1717118496215949,787,0,2.014575393946502,0.39899650169333695,19.816851767604913,0.49714733570561054,0.09848820585762726,0.5494034582704994,-0.24481105096981257,-0.38226718359750994,0.148046875,0.17226833145012363,0,0,1,1,0,0,0,0,,
16.455041191499983,1100,,,,-0.05546875,-0.016796875,-0.9576171875,0.00492664487164285,0.19509359747363678,12.495506672148753,0.17144170890354093,787,0,2.018878851954228,0.40608158677398337,20.114820394744864,0.4805326161821923,0.0966479177533166,0.549065668914645,-0.24506975632125622,-0.3819601360743776,0.1435546875,0.17209737884504836,0,0,1,1,0,0,0,0,,
16.709802691500023,1100,,,,-0.04453125,-0.00703125,-0.9568359375,0.004838569631406624,0.19361899370857721,12.495425551278577,0.17171873904693713,787,0,2.0147803551846777,0.3987092977353096,19.791728834275197,0.48579419869799245,0.09610559377587885,0.5499952369972194,-0.24531616064257875,-0.38182089915605544,0.1392578125,0.17208597313536583,0,0,1,1,0,0,0,0,,
16.958723691500026,1060,,,,-0.05078125,0.0080078125,-0.9681640625,0.004709782653493829,0.19477840297965487,12.495791579383715,0.1707504289672957,787,0,1.9974007989922686,0.3880804349663891,19.456458076356338,0.5019039147510862,0.09765784207899243,0.5506635440592438,-0.2450814016490121,-0.38193037437767374,0.139453125,0.17205648986794014,0,0,1,1,0,0,0,0,,
17.205675191499992,1000,,,,-0.081640625,-0.0037109375,-0.962109375,0.002612536558250516,0.19114453801796194,12.498379927236162,0.10224769545785817,675,0,1.1437396095932297,0.19667780977927427,15.78302566941504,0.38316193735492654,0.17422255315465746,0.5564835471181596,-0.2368979319547234,-0.3815872529433918,0.1482421875,0.1663642814972182,0.1,0,1,1,0,0,0,0,,
17.462906191499975,1000,,,,-0.055078125,-0.025,-0.95390625,-0.0027455330748984612,0.16215272814871773,12.500354468501799,0.06223930397831142,630,0,0.6600917494217347,0.1777426323573211,28.141068760279744,0.5950558924365299,0.24677764931133486,0.5743861795891156,-0.21860334832798078,-0.37884975127791226,0.1619140625,0.15754876955530014,0,0,1,1,0,0,0,0,,
17.710233191499952,1000,,,,-0.0734375,-0.016015625,-0.9556640625,-0.004171977638274549,0.11937701637186988,12.500795971886872,0.05346302181048694,537,0,0.5530065175609236,0.2342723869726612,42.59764841284518,0.5095344329509723,0.21553893341145983,0.580264666022863,-0.21469091643130594,-0.37481072843803703,0.1505859375,0.14961679009112228,0,0,1,1,0,0,0,0,,
17.958973191500014,1000,,,,-0.0693359375,-0.0080078125,-0.9595703125,-0.00439564636276499,0.08030712951289506,12.500863573164665,0.049944831041050554,467,0,0.48630249949864934,0.21477518590670058,44.21683974851841,0.3722750102604592,0.16503886398258752,0.581208980997766,-0.2140968696620046,-0.3711216217272483,0.1396484375,0.14202690711817573,0,0,1,1,0,0,0,0,,
18.207747191500054,1000,,,,-0.06953125,-0.0142578125,-0.9619140625,-0.004287008537778437,0.050945065193159306,12.500735297727392,0.052696038437650104,458,0,0.5201771159204963,0.20554726168075116,39.59182788137666,0.24772215049970736,0.09849539685466996,0.5805997630465678,-0.2142557398993346,-0.3683491594235938,0.143359375,0.13531848126107615,0.2,0,1,1,0,0,0,0,,
18.458449191500016,1000,,,,-0.0611328125,-0.0189453125,-0.9537109375,-0.004161085760337901,0.034053621370593874,12.500798696623924,0.05222591257343676,122,0,0.5268251589776918,0.05417935640864156,9.62833200237851,0.06739548762098323,0.021064415069302556,0.5802323695019039,-0.21473163317878557,-0.3667542139612313,0.1421875,0.12910623926947112,0,0,1,1,0,0,0,0,,
18.7074091915,1000,,,,-0.0724609375,-0.0083984375,-0.9625,-0.004034529069552253,0.018663300599229417,12.501326179857104,0.049776534509194933,0,0,0.48821462470880334,0,0,0,0,0.5801299530397906,-0.21543972126859626,-0.36530100945506594,0.1283203125,0.12304336966986087,0.1,0,1,1,0,0,0,0,,
18.956764691500016,1000,,,,-0.065234375,-0.005859375,-0.963671875,-0.004117104067115381,0.006413311164695668,12.500952605978634,0.04823178575354321,0,0,0.46857506107994285,0,0,0,0,0.5811195908210693,-0.21577246684230764,-0.36414432532149893,0.1216796875,0.11743367073690762,0,0,1,1,0,0,0,0,,
19.211519191499985,1000,,,,-0.0640625,-0.021875,-0.9533203125,-0.004226496342653671,0.003041348314002213,12.500801530903436,0.04907469607734107,0,0,0.48332299527205597,0,0,0,0,0.5824585885977192,-0.21623735797067392,-0.3638259335425332,0.112890625,0.1121329677334612,0.1,0,1,1,0,0,0,0,,
19.48204719150001,1000,,,,-0.0658203125,-0.025390625,-0.9599609375,-0.002770614824428262,0.0016217598082447265,12.500610711521364,0.05123790287147421,0,0,0.5197055196769954,0,0,0,0,0.573548465763869,-0.21772407008559608,-0.3636918913452252,0.101171875,0.10721157870847549,0.1,0,1,1,0,0,0,0,,
19.73148669149999,1000,,,,-0.0625,-0.0384765625,-0.95078125,-0.0009350436720394949,0.0007590897532286802,12.500533518092972,0.04777799095522044,0,0,0.4835049210398057,0,0,0,0,0.5606417750808833,-0.2181578174347051,-0.3636104352125099,0.08828125,0.10270291780225949,0,0,1,1,0,0,0,0,,
19.98061569149997,1000,,,,-0.0625,-0.0380859375,-0.9501953125,0.0006478966155790941,0.0002590351827398956,12.500814809236335,0.04617924074840563,0,0,0.45399186605460445,0,0,0,0,0.5558683475333461,-0.22400662735371252,-0.3635632184217778,0.078515625,0.09842405513608185,0.1,0,1,1,0,0,0,0,,
20.23070619150004,1000,,,,-0.0625,-0.0376953125,-0.9505859375,0.0008174491718983958,-0.0031184363145417165,12.500525868674451,0.04800669109493427,0,0,0.4558741770274871,0,0,0,0,0.5608892035343571,-0.2293975610592253,-0.36324430649835454,0.071875,0.09461680338492869,0,0,1,1,0,0,0,0,,
20.481021191499913,1000,,,,-0.0625,-0.03828125,-0.9501953125,0.0002854693390748738,-0.0011044673383887344,12.500793801962645,0.04959925626075064,0,0,0.4729960082130991,0,0,0,0,0.5653641420173819,-0.22990430605548734,-0.363434472046877,0.0673828125,0.09122152860667963,0,0,1,1,0,0,0,0,,
20.730399191500062,1000,,,,-0.0625,-0.0384765625,-0.95078125,0.0002549057964304904,0.004150909927207747,12.499992430414974,0.05157507044306213,0,0,0.5021641875371261,0,0,0,0,0.5658716379828087,-0.2301490716436086,-0.36393070198499333,0.0642578125,0.08825791372473808,0.1,0,1,1,0,0,0,0,,
20.980119691499997,1000,,,,-0.0625,-0.0376953125,-0.95078125,0.0002674659074965608,-0.0017969533651311191,12.500871840912016,0.04807676279491486,0,0,0.47278914737916855,0,0,0,0,0.565713970957636,-0.23009231202920968,-0.3633690852476369,0.0625,0.08523095687349888,0,0,1,1,0,0,0,0,,
21.23045369150003,1000,,,,-0.0625,-0.037890625,-0.9505859375,0.00028765837099691504,-0.0064200947578706485,12.501256694633494,0.04518187274315906,0,0,0.42742408647515323,0,0,0,0,0.5656075422785299,-0.23012770303349347,-0.36293255309185035,0.060546875,0.08214493780841267,0.1,0,1,1,0,0,0,0,,
21.4817341915,1000,,,,-0.0625,-0.037890625,-0.95078125,0.00031831533764941413,-0.0074670497446919695,12.501218821834732,0.04676439696548739,0,0,0.4490400508031539,0,0,0,0,0.5654196819183994,-0.23015880507251096,-0.3628336961721537,0.060546875,0.07946571109559061,0,0,1,1,0,0,0,0,,
21.72991919150001,1000,,,,-0.0625,-0.0380859375,-0.9509765625,0.00026571754162893837,-0.005645289175500824,12.500856157909576,0.047284312212565106,0,0,0.46824365164356435,0,0,0,0,0.5659098578237198,-0.23025001501102146,-0.3630057127732131,0.05859375,0.07708579597341257,0,0,1,1,0,0,0,0,,
21.983021191499983,1000,,,,-0.0625,-0.03828125,-0.95,0.00020937563399159358,-0.0035222050857930376,12.501127192978633,0.0456139680924989,0,0,0.44549119340188115,0,0,0,0,0.5660762702926555,-0.2300388322547735,-0.3632061813282202,0.05859375,0.07464989795165007,0.1,0,1,1,0,0,0,0,,
22.235458691500035,1000,,,,-0.0625,-0.037890625,-0.950390625,0.00020801964110804186,-0.007912654769132351,12.501046873518707,0.04422448337900391,0,0,0.42363732547494914,0,0,0,0,0.5660930219787028,-0.23004472743028948,-0.36279162068593707,0.05859375,0.07231956341423966,0.1,0,1,1,0,0,0,0,,
22.48307819150002,1000,,,,-0.0625,-0.0380859375,-0.951171875,0.00018453170501451943,-0.015607828815345585,12.501310587272243,0.04301271257839086,0,0,0.39938239967852407,0,0,0,0,0.5660394141794574,-0.22985077314407737,-0.3620650171429822,0.05859375,0.07007328238981786,0,0,1,1,0,0,0,0,,
22.731885691500015,1000,,,,-0.0625,-0.037890625,-0.9509765625,0.0002247350975269515,-0.01759147640879676,12.501246976378098,0.04808026030015543,0,0,0.4662155182103717,0,0,0,0,0.5658885486658788,-0.22997380218389182,-0.3618777146387478,0.05859375,0.06849828223952428,0,0,1,1,0,0,0,0,,
22.984019691499977,1000,,,,-0.0625,-0.0375,-0.9505859375,0.0002560420891298959,-0.009554555850106995,12.500908608630906,0.04448228557615061,0,0,0.4246570845282521,0,0,0,0,0.5660338014438024,-0.23029588122923839,-0.36263658700697754,0.05859375,0.06665715916099454,0.1,0,1,1,0,0,0,0,,
23.234839691499968,1000,,,,-0.0625,-0.0384765625,-0.9501953125,0.0001611467773603666,-0.005658547451331818,12.501296135927763,0.04409129163152838,0,0,0.4384612451490567,0,0,0,0,0.5664989364258193,-0.23009939002671426,-0.3630044608833748,0.05859375,0.06489479876878065,0,0,1,1,0,0,0,0,,
23.48256219149998,1000,,,,-0.0625,-0.037890625,-0.9509765625,0.00015961471170306002,-0.0011761499166327784,12.501432370519543,0.04424290771712886,0,0,0.41683838727330275,0,0,0,0,0.5665357681047473,-0.2301214708500982,-0.3634277035430061,0.05859375,0.06338214367644919,0.1,0,1,1,0,0,0,0,,
23.73352269150002,1000,,,,-0.0625,-0.0384765625,-0.950390625,0.00021646489106163014,-0.0021419868254863145,12.501143297351298,0.04524904139807421,0,0,0.4182562200023495,0,0,0,0,0.5661982461883465,-0.23018848703512879,-0.3633365060579752,0.05859375,0.06198822900648741,0.1,0,1,1,0,0,0,0,,
23.979430691500035,1000,,,,-0.0625,-0.037890625,-0.9505859375,0.0002444429962230357,-0.0038878879461963704,12.501281989891206,0.04841215114487653,0,0,0.45775074012342437,0,0,0,0,0.5659481877710938,-0.23014916689078596,-0.3631716523545581,0.05859375,0.06106756987046411,0.1,0,1,1,0,0,0,0,,
24.23224469150002,1000,,,,-0.0625,-0.0380859375,-0.9501953125,0.0002747396086765619,-0.0012195272719566317,12.501689415007425,0.044635202855434486,0,0,0.4107516319903174,0,0,0,0,0.5656598603153933,-0.23009147630119947,-0.36342360771101145,0.05859375,0.059729087386120774,0.3,0,1,1,0,0,0,0,,
24.483842691500037,1000,,,,-0.0625,-0.03828125,-0.9501953125,0.00022790519906313445,0.0008214660837406819,12.50159081841812,0.04542322276862147,0,0,0.424174738539988,0,0,0,0,0.5660281461982303,-0.23011397399801675,-0.36361632498998275,0.05859375,0.05868678804823393,0,0,1,1,0,0,0,0,,
24.73565119150002,1000,,,,-0.0625,-0.0373046875,-0.95078125,0.00015616490236097796,-0.00007698978991052183,12.501137726861026,0.04497581525648222,0,0,0.4156973165722853,0,0,0,0,0.5666635352847932,-0.23020980165856839,-0.36353148984303696,0.05859375,0.05758478423482962,0.1,0,1,1,0,0,0,0,,
24.98376619150003,1000,,,,-0.0625,-0.037890625,-0.9505859375,0.00015603563041819416,-0.0009197199506163237,12.500604420906232,0.04827181946469676,0,0,0.4654068162734549,0,0,0,0,0.5667026859451815,-0.2302427060092836,-0.3634519165004659,0.05859375,0.05696258315782231,0.2,0,1,1,0,0,0,0,,
25.230240691499972,1000,,,,-0.0625,-0.03828125,-0.9505859375,0.00010654238261378237,-0.0019450397615260841,12.501163041169484,0.04780440807055377,0,0,0.46650047276812795,0,0,0,0,0.5667600833225785,-0.22998072780866718,-0.3633551024449559,0.05859375,0.05627048176114865,0.1,0,1,1,0,0,0,0,,
25.484046691499977,1000,,,,-0.0625,-0.0384765625,-0.950390625,0.00011692980243673225,-0.007610786239532168,12.501305149051666,0.044051084097148606,0,0,0.4194375337615588,0,0,0,0,0.5666771866137654,-0.22997469211056418,-0.36282012410142794,0.05859375,0.05532102264397246,0,0,1,1,0,0,0,0,,
25.736707191499995,1000,,,,-0.0625,-0.0376953125,-0.951171875,0.0002233341834318062,-0.009042349062821451,12.500710485722577,0.04415706043614375,0,0,0.428441658120725,0,0,0,0,0.5660324199873277,-0.23008889397264304,-0.3626849512498306,0.05859375,0.054373695204831575,0,0,1,1,0,0,0,0,,
26.000056691500028,1000,,,,-0.0625,-0.0380859375,-0.9509765625,0.0002575858264540981,-0.0045070305774149695,12.501021032505875,0.04813570826818789,0,0,0.4847185395958474,0,0,0,0,0.5658622335358716,-0.23015783494744463,-0.3631131908789974,0.05859375,0.05399980246538928,0.1,0,1,1,0,0,0,0,,
26.257338191500008,1000,,,,-0.0625,-0.037890625,-0.950390625,0.0002466382093878037,-0.0011786036978954186,12.500988653290928,0.04398677406533201,0,0,0.43259883724018683,0,0,0,0,0.5658949766703654,-0.23011715212746883,-0.3634274718489406,0.05859375,0.053205218547407215,0,0,1,1,0,0,0,0,,
26.5065216915,1000,,,,-0.0625,-0.0384765625,-0.9505859375,0.00023102918860541305,-0.0011545112072444453,12.500826145746213,0.04570593550013747,0,0,0.4460332835673677,0,0,0,0,0.5658718926495301,-0.22999905981952637,-0.36342974674083517,0.05859375,0.052603339161354436,0.1,0,1,1,0,0,0,0,,
26.75625519150002,1000,,,,-0.0625,-0.0384765625,-0.950390625,0.00020953772886356535,-0.001453813051384944,12.501336364713497,0.043010674624121135,0,0,0.42022247229380866,0,0,0,0,0.5657393584826476,-0.2297496935598907,-0.3634014856801938,0.05859375,0.05190001317612536,0,0,1,1,0,0,0,0,,
27.006485691499968,1000,,,,-0.0625,-0.0376953125,-0.95078125,0.0002113152870076243,0.002147319304569357,12.500930075676235,0.0424944789935189,0,0,0.40895255632385596,0,0,0,0,0.5659510806480289,-0.22994321942324833,-0.36374151639460933,0.05859375,0.05115679166944918,0,0,1,1,0,0,0,0,,
27.256992191499982,1000,,,,-0.0625,-0.037890625,-0.9501953125,0.0002349486200547994,0.0013087372873617593,12.50080259798014,0.047164955058384875,0,0,0.46472132573738884,0,0,0,0,0.5660929528537308,-0.23021410450807367,-0.3636623347333367,0.05859375,0.0508670649331693,0,0,1,1,0,0,0,0,,
27.504524691500002,1000,,,,-0.0625,-0.03828125,-0.9501953125,0.00022195250764376609,-0.005539558012479036,12.501415053940779,0.04707246712783926,0,0,0.44888094922281735,0,0,0,0,0.5661193582418005,-0.2301550743373418,-0.3630156962560026,0.05859375,0.05063019047705082,0.1,0,1,1,0,0,0,0,,
27.757811191500025,1000,,,,-0.0625,-0.0384765625,-0.95078125,0.00020819953314764358,-0.0057621472783762374,12.501256279215514,0.04825492143095831,0,0,0.4572179863317148,0,0,0,0,0.5660838570280501,-0.23003796617610434,-0.3629946786483107,0.05859375,0.05043282008924792,0,0,1,1,0,0,0,0,,
28.007442691500017,1000,,,,-0.0625,-0.0380859375,-0.9505859375,0.00024047469404986046,-0.0010402061978020726,12.501149879122043,0.047886123481415015,0,0,0.4504468264853646,0,0,0,0,0.5660085499367733,-0.2301761841250462,-0.3634405397942918,0.05859375,0.05027980913070842,0.1,0,1,1,0,0,0,0,,
28.25705719149995,1000,,,,-0.0625,-0.0376953125,-0.951171875,0.00028485882665739545,-0.0011023263684305253,12.501127295755586,0.04850150963856664,0,0,0.46516342927985244,0,0,0,0,0.5659603475751298,-0.23041393489685555,-0.3634346742042743,0.05859375,0.0500999686402918,0.1,0,1,1,0,0,0,0,,
28.50523919150005,1000,,,,-0.0625,-0.0384765625,-0.9509765625,0.0002626039364950159,-0.0011426543583020678,12.500872405614796,0.047179198762529684,0,0,0.4499210075787886,0,0,0,0,0.5662748642413136,-0.23054477878267438,-0.3634308663033556,0.05859375,0.0499341852023446,0.1,0,1,1,0,0,0,0,,
28.76033019150002,1000,,,,-0.0625,-0.0376953125,-0.95078125,0.0002836577710237892,-0.000518336694567225,12.500989127154167,0.04143434388024285,0,0,0.37761761544974043,0,0,0,0,0.5656060861747056,-0.23010127729604749,-0.36348981642243994,0.05859375,0.0492126824350516,0,0,1,1,0,0,0,0,,
29.007787691499992,1000,,,,-0.0625,-0.0380859375,-0.950390625,0.0003225269598196169,-0.005176947736475914,12.501193374382217,0.04017944275779804,0,0,0.36500305804308536,0,0,0,0,0.5655038193106585,-0.23025776617201604,-0.3630499351061797,0.05859375,0.04846248786620135,0,0,1,1,0,0,0,0,,
29.256188691499972,1000,,,,-0.0625,-0.0380859375,-0.950390625,0.00030651733129456477,-0.012861169437821483,12.500891996984636,0.04483407259429783,0,0,0.4328657460205888,0,0,0,0,0.5657599937050539,-0.23037765900153442,-0.3623243657195075,0.05859375,0.048229742620328774,0.1,0,1,1,0,0,0,0,,
29.506944691499996,1000,,,,-0.0625,-0.03828125,-0.95078125,0.00017911736858632939,-0.016623458643554,12.50071396565846,0.046893993580861375,0,0,0.4489612588725388,0,0,0,0,0.5663765406352592,-0.23010704969695114,-0.3619691180473835,0.05859375,0.04818831714964797,0,0,1,1,0,0,0,0,,
29.757499191500038,1000,,,,-0.0625,-0.0380859375,-0.95078125,0.00016763822411184164,-0.023476227822570965,12.501439293215636,0.046050130839406345,0,0,0.4360790426918955,0,0,0,0,0.5666055948996223,-0.23023209157138327,-0.36132205713172105,0.05859375,0.048008758759697095,0,0,1,1,0,0,0,0,,
30.008392191499986,1000,,,,-0.0625,-0.0375,-0.9505859375,0.0002087234005246408,-0.016672020329340006,12.50157714926618,0.04516571886670381,0,0,0.4291024620832822,0,0,0,0,0.566135525627765,-0.2300857608928492,-0.36196453269392276,0.05859375,0.047806570802900544,0.1,0,1,1,0,0,0,0,,
30.257209191500003,1000,,,,-0.0625,-0.038671875,-0.951171875,0.0003091464580979861,-0.011034779944616638,12.50106647724095,0.040701995459067386,0,0,0.3798658599237389,0,0,0,0,0.5656244205411144,-0.23027744172622966,-0.3624968193987367,0.05859375,0.047195712632181044,0,0,1,1,0,0,0,0,,
30.508834691499988,1000,,,,-0.0625,-0.0376953125,-0.9509765625,0.0002489377775054982,-0.008788164014314655,12.50158800069399,0.04825938173352616,0,0,0.4602356491905704,0,0,0,0,0.5658545559424079,-0.23009680941753233,-0.36270895223482486,0.05859375,0.04738588501789028,0.1,0,1,1,0,0,0,0,,
30.755698691500026,1000,,,,-0.0625,-0.037890625,-0.9501953125,0.0002091619287723336,-0.006063227634619093,12.501242203361297,0.04770573761683052,0,0,0.4511154308602155,0,0,0,0,0.5662493451379674,-0.23018654489246484,-0.36296624965473023,0.05859375,0.047408241299198364,0,0,1,1,0,0,0,0,,
31.009057191499977,1000,,,,-0.0625,-0.03828125,-0.9501953125,0.00020073073515895906,0.00007612942717492356,12.500958619974615,0.03978185167958103,0,0,0.3480388462005476,0,0,0,0,0.5663222536145833,-0.2301962869614842,-0.36354594786113514,0.05859375,0.04675781289839275,0.1,0,1,1,0,0,0,0,,
31.25679719150001,1000,,,,-0.0625,-0.037890625,-0.9498046875,0.00018619897552807417,0.006140616826631479,12.501105899812906,0.03740245530652064,0,0,0.31600084792711647,0,0,0,0,0.5666062745168332,-0.23034946076407206,-0.3641185766287481,0.05859375,0.04599456465103878,0.1,0,1,1,0,0,0,0,,
31.509048691499977,1000,,,,-0.0625,-0.037890625,-0.950390625,0.00021059092122973334,0.004513297596644678,12.501128459990909,0.04348971164586673,0,0,0.4083234544927624,0,0,0,0,0.5662696725450302,-0.23021304266000242,-0.36396491981592927,0.05859375,0.045859981266936994,0,0,1,1,0,0,0,0,,
31.755717691500024,1000,,,,-0.0625,-0.03828125,-0.9509765625,0.00021801508292757925,-0.00010293477056799139,12.500736864682453,0.042655299316087816,0,0,0.4068317668732761,0,0,0,0,0.5659894126796934,-0.2300183871080573,-0.3635290400329671,0.05859375,0.045652645277744146,0,0,1,1,0,0,0,0,,
32.01031119150002,1120,,,,-0.0720703125,-0.0232421875,-0.9552734375,0.0002010229486332997,-0.007787977407761806,12.490909333352928,0.22719697204751715,0,0,2.820474313258866,0,0,0,0,0.5661391037440777,-0.23004039138122256,-0.36280339313084264,0.067578125,0.05632859313826444,0,0,1,1,0,0,0,0,,
32.26321069149999,1200,,,,-0.065625,-0.0296875,-0.9494140625,0.019045176158947012,0.003763909089471786,12.478647826639895,0.6722050802429338,422,0,8.346321771005965,1.1985633066335233,16.64687404895845,24.970580163610407,0.001026873822520822,0.5621280327242324,-0.34515298072522854,-0.36389416009807346,0.12421875,0.11463958885528469,0.1,0,1,1,0,0,0,0,,
32.510078691499984,1200,,,,-0.0828125,-0.00390625,-0.958203125,0.025129062220092025,0.09868561177929472,12.487276758061864,0.41681187082211835,909,0,5.086695066869514,2.3852000447900643,47.210411896558504,0.041634051873301076,0.020306036151616042,0.5155008978604242,-0.3432759810209493,-0.37285697823103897,0.134765625,0.13309270850319604,0.1,0,1,1,0,0,0,0,,
32.75798669150001,1200,,,,-0.0509765625,-0.048046875,-0.952734375,0.019709411250389827,0.22588704293681247,12.489605744993582,0.3431460747017175,1014,0,4.1513118349976805,2.088687208066605,50.26789263172655,0.10928960906177189,0.05464899023977774,0.5084547756368804,-0.30310731026375504,-0.3848677540748228,0.1353515625,0.14741463592774023,0,0,1,1,0,0,0,0,,
33.008328691500004,1200,,,,-0.071875,-0.0203125,-0.9619140625,0.01663983366689704,0.3142380033642155,12.48999651616829,0.3216007377190081,1078,0,3.887660734341959,1.8767998199334994,48.27081551147826,0.16776233773255472,0.08089197532361911,0.511399000263708,-0.28632924285670885,-0.39321014119751535,0.143359375,0.16020191955294624,0,0,1,1,0,0,0,0,,
33.25559419150001,1200,,,,-0.066015625,-0.0111328125,-0.953515625,0.014798840238443753,0.3603518492873869,12.49056017263184,0.31598061338768685,1118,0,3.821220069113809,1.7320359125637554,45.328734975245446,0.20812456934616966,0.09431313022525548,0.5172234213390966,-0.27976191487250707,-0.39756436159926645,0.149609375,0.17173561878734062,0,0,1,1,0,0,0,0,,
33.50681119149998,1200,,,,-0.0662109375,-0.0173828125,-0.9630859375,0.014028976999107651,0.39088704239775135,12.490112199965868,0.31609515833712154,1144,0,3.8183048541878764,1.680601767763766,44.01431425066326,0.2326521199219722,0.1023726031913118,0.5195174582023161,-0.2768936439893436,-0.4004475945665204,0.1541015625,0.18267969398404252,0.1,0,1,1,0,0,0,0,,
33.75696069149999,1200,,,,-0.070703125,-0.008203125,-0.9630859375,0.013630085355977772,0.4131720522334463,12.490230512621803,0.3177176763052511,1160,0,3.8400776123745315,1.6556467146082448,43.11662044122693,0.2495665936850805,0.10759184043701292,0.5204388350778045,-0.2751773430519269,-0.40255181820124986,0.1623046875,0.19286529978211198,0.1,0,1,1,0,0,0,0,,
34.007742191499986,1200,,,,-0.06640625,-0.023046875,-0.9560546875,0.013394308727937152,0.42584381779955127,12.490320786361565,0.3206663991527997,1170,0,3.8822627370166507,1.6417593598644789,42.29190988274924,0.2593809977723076,0.10969867185286829,0.5207786859589321,-0.27398653091622893,-0.40374832781890496,0.1744140625,0.20262150901836634,0.2,0,1,1,0,0,0,0,,
34.25732769150001,1200,,,,-0.0451171875,-0.0474609375,-0.96171875,0.013199587247589569,0.43229116001245976,12.491043775229445,0.3140864056852349,1176,0,3.793873822499679,1.6261356404529597,42.862803636915245,0.26585334715282105,0.11394591909358585,0.521327337139857,-0.2732338620726361,-0.40435710699224237,0.18125,0.21095128889153641,0.2,0,1,1,0,0,0,0,,
34.50983619150004,1200,,,,-0.012109375,-0.0677734375,-0.9455078125,0.01298385874221843,0.43588396044234334,12.490705273052413,0.31244789689936525,1180,0,3.7794715644327033,1.6043787741906126,42.45065264803149,0.27169337917440084,0.11533656786684898,0.5221934703378054,-0.27262244250738377,-0.40469635097890266,0.1822265625,0.21869637287474225,0.1,0,1,1,0,0,0,0,,
34.75608069150003,1200,,,,-0.0677734375,-0.019140625,-0.9556640625,0.012663708182073453,0.4442860912976981,12.490512076501918,0.3115824772848562,1183,0,3.778248719252158,1.5682476599462238,41.50770905185839,0.28331268760292105,0.11758939421049754,0.5240023892422424,-0.27216595684082145,-0.4054897076997782,0.18203125,0.22555960724525742,0.1,0,1,1,0,0,0,0,,
35.008140691500024,1200,,,,-0.0599609375,-0.039453125,-0.9703125,0.012481242312287122,0.44860448659711405,12.490191949894532,0.3154847361491384,1184,0,3.8182821529914777,1.5474216579057902,40.526761891219834,0.28991720545645744,0.11748966079890129,0.5252938380676772,-0.2721301197513317,-0.40589746473108007,0.1861328125,0.23245865169469232,0.1,0,1,1,0,0,0,0,,
35.25670969149999,1200,,,,-0.072265625,0.0083984375,-0.960546875,0.012280303896414574,0.44991013467402896,12.490360905277258,0.3132173355305029,1184,0,3.787811573290618,1.5231179547682168,40.21120316316582,0.2954075982301485,0.11878009068166762,0.5265146628686916,-0.2719172302263814,-0.40602074829982604,0.1947265625,0.23851969270789336,0.2,0,1,1,0,0,0,0,,
35.50708919150003,1200,,,,-0.0771484375,-0.0126953125,-0.95546875,0.012131769982316559,0.4494011987042124,12.49056599467954,0.3098824078283698,1185,0,3.7679257969491844,1.5053603093069556,39.95304127255545,0.2985347678525774,0.11927296143438114,0.527395749578482,-0.2717414761333443,-0.40597269289827365,0.198046875,0.24387975676610257,0.3,0,1,1,0,0,0,0,,
35.75965369150005,1200,,,,-0.0669921875,-0.008984375,-0.9529296875,0.012196618152763997,0.4496411628584328,12.489961952204101,0.31028221419520574,1186,0,3.7496879722090632,1.5145585132556032,40.391974456737245,0.29688061468464794,0.11991624809118388,0.527011567268932,-0.2718186301871342,-0.40599535109984153,0.2001953125,0.2489102002972606,0,0,1,1,0,0,0,0,,
36.00641369149999,1200,,,,-0.0693359375,-0.015234375,-0.9560546875,0.01224179502282131,0.4579157047827134,12.489809810680537,0.3127561942504482,1186,0,3.7789113526056908,1.5207593634330168,40.24375468532281,0.3011084276743788,0.12117597367599851,0.5268179965459833,-0.271936173238813,-0.4067766604558617,0.2001953125,0.2537095314802945,0.1,0,1,1,0,0,0,0,,
36.25579919150004,1200,,,,-0.0615234375,-0.030859375,-0.9546875,0.012450677800301612,0.4638510179058473,12.489925727979067,0.3149816335566512,1186,0,3.805056219124932,1.54691511420967,40.65487276809391,0.29985553962455136,0.12190554450013075,0.5251380802799959,-0.2718036651426264,-0.40733709216512726,0.2021484375,0.25835833267776387,0.1,0,1,1,0,0,0,0,,
36.5069756915,1200,,,,-0.081640625,-0.0115234375,-0.955859375,0.012482945219571679,0.4669039080599959,12.490285191311338,0.3118887249229539,1187,0,3.783156840768566,1.5516178421951978,41.013986592684525,0.30091578133160496,0.12341703193272616,0.5247851623118958,-0.27170274753747703,-0.4076253560547981,0.2046875,0.2624116879505355,0.1,0,1,1,0,0,0,0,,
36.756677191499996,1200,,,,-0.063671875,-0.014453125,-0.95390625,0.01242952699971971,0.4687019362479933,12.490461273235784,0.31478093382400363,1187,0,3.810377609862235,1.5450628642296518,40.549716696787,0.30335456752497897,0.12300941981205758,0.5250024309002999,-0.27155375938872994,-0.4077951317666776,0.2083984375,0.2663551663878432,0.2,0,1,1,0,0,0,0,,
37.010247191500035,1200,,,,-0.07265625,-0.009765625,-0.9626953125,0.012457672765440807,0.46327801849880024,12.490112499661933,0.31691051520399116,1188,0,3.8199043794233503,1.5492349518716064,40.55726070148446,0.2990400761837769,0.12128221714468584,0.5249707266781155,-0.27170354736715147,-0.4072829876839587,0.205078125,0.2702430249908029,0.1,0,1,1,0,0,0,0,,
37.25756219149998,1200,,,,-0.0796875,-0.0130859375,-0.954296875,0.012571894728157418,0.46708258134581376,12.489921056029662,0.32191690693116615,1188,0,3.876300883792955,1.564596896965756,40.36353497058798,0.29853237166855573,0.12049832800400845,0.5246522252671912,-0.272147926725931,-0.40764222697178154,0.2037109375,0.2741839475476039,0.1,0,1,1,0,0,0,0,,
37.506283191500046,1200,,,,-0.0619140625,-0.0244140625,-0.96484375,0.012739997902164207,0.4724906648359204,12.490134802228557,0.31440953654952747,1188,0,3.7991957194988126,1.5844440895293457,41.710658820187014,0.29821481962976265,0.12437811507102212,0.5235387260667993,-0.272246649587526,-0.4081528759318841,0.2056640625,0.2771970346493144,0,0,1,1,0,0,0,0,,
37.757498691500025,1200,,,,-0.08515625,0.0025390625,-0.95859375,0.012851081000440037,0.4708438432383981,12.490602574857736,0.31295562902124124,1187,0,3.792325755943891,1.5976779672010752,42.13143285786889,0.29470565713117114,0.1241661441733719,0.522392106661456,-0.2719580791272779,-0.4079973776416327,0.2056640625,0.27979692679487855,0.1,0,1,1,0,0,0,0,,
38.00607769150005,1200,,,,-0.0671875,-0.0189453125,-0.962890625,0.01271227877726975,0.46892611872963136,12.490516658562896,0.31267254051414606,1186,0,3.7961552968697156,1.57949316622387,41.60918174460349,0.296894835609189,0.12352988421926786,0.522791760509912,-0.2714289321712458,-0.4078162998110191,0.2015625,0.2822687846878534,0.1,0,1,1,0,0,0,0,,
38.255896191500014,1200,,,,-0.0626953125,-0.02265625,-0.9564453125,0.0126512595583561,0.4666293052723424,12.49047754467218,0.3167410899637217,1186,0,3.8454129332585354,1.5715883114957037,40.86973871103179,0.2969148347627649,0.12135125472049031,0.5229867218763373,-0.27121290703358725,-0.4075994271599848,0.1982421875,0.28492466458013166,0,0,1,1,0,0,0,0,,
38.50707519149999,1200,,,,-0.0775390625,-0.006640625,-0.96875,0.012749997882463324,0.45702048274948803,12.490627948274986,0.31806631873258684,1187,0,3.8484157078817347,1.5853591249623218,41.19647491395015,0.2882795429828578,0.11875555197662117,0.5229544592777947,-0.2718063811219581,-0.40669213065872317,0.1990234375,0.28749471656019476,0,0,1,1,0,0,0,0,,
38.76111569150002,1200,,,,-0.0685546875,-0.0208984375,-0.94921875,0.012690390091300258,0.4513082099130332,12.490471226585436,0.3170565081072594,1187,0,3.818126344252353,1.5778954305301227,41.32720055184951,0.2860202579125162,0.118202799347836,0.5232996926532302,-0.2717286554378947,-0.4061527591440094,0.2046875,0.28973188273626727,0.2,0,1,1,0,0,0,0,,
39.00696719149998,1200,,,,-0.075,-0.0087890625,-0.9673828125,0.012695447779160604,0.45138786863479813,12.49067094413864,0.3143778584095166,1187,0,3.7874955324469584,1.5780139971520175,41.66500866123846,0.2860485640784618,0.1191801722827357,0.5232542935942665,-0.27172137927506,-0.40616028078148164,0.20078125,0.29155975833366654,0,0,1,1,0,0,0,0,,
39.25679519150001,1200,,,,-0.0556640625,-0.0251953125,-0.9400390625,0.012676600550104302,0.45098438249448636,12.490233173108388,0.31237236144341907,1187,0,3.781755057736568,1.5753645463774437,41.65831038442455,0.28627840193283444,0.11925478042031802,0.523558666892491,-0.2718649283242661,-0.4061221822982864,0.1978515625,0.2930592655980398,0.2,0,1,1,0,0,0,0,,
39.50927569149998,1200,,,,-0.0701171875,-0.0150390625,-0.9587890625,0.012568376731636157,0.4508374847100025,12.489788456837598,0.3178658574910393,1187,0,3.8380581654207715,1.5625259942736065,40.711824647431094,0.2885393508304005,0.1174653146291339,0.5242918353647819,-0.2718154129278564,-0.40610831172823597,0.19921875,0.29500668577777006,0,0,1,1,0,0,0,0,,
39.7779656915,1200,,,,-0.0642578125,-0.02265625,-0.9580078125,0.01237869035519961,0.4537177324079003,12.490914035888151,0.3156597386320136,1187,0,3.8115381223057687,1.538082273449302,40.35403721899433,0.29500119950820797,0.11904467739621402,0.5253680382888348,-0.27154876830165475,-0.4063802741516083,0.20234375,0.2967411397439359,0.2,0,1,1,0,0,0,0,,
40.03267719150006,1200,,,,-0.0716796875,-0.0171875,-0.9611328125,0.01220045215386626,0.45800734616053324,12.49058502884905,0.3088054145589301,1186,0,3.7490470111174132,1.5154558086581933,40.422532383571635,0.30222718400226667,0.12216526327178769,0.5267308530695576,-0.27160099412859734,-0.40678531353497416,0.2046875,0.2975524402245029,0.1,0,1,1,0,0,0,0,,
40.28191469150001,1200,,,,-0.0921875,0.005859375,-0.9626953125,0.01221737667714218,0.47389473202892907,12.490528103610206,0.31417721562465867,1187,0,3.7960588418744123,1.518299332375339,39.996999160226636,0.31212213282629425,0.12483925605584704,0.5269853796846625,-0.271926688881749,-0.40828545255599413,0.2095703125,0.29885235360129697,0.2,0,1,1,0,0,0,0,,
40.533929191500015,1200,,,,-0.046875,-0.025,-0.96953125,0.012263947150305772,0.4655131526120219,12.490651244237005,0.3166758405495259,1187,0,3.8343598197000546,1.5244463496700205,39.75872411430656,0.3053647874862865,0.12140798750549461,0.5266190555620283,-0.2719042200288776,-0.40749403636926373,0.2087890625,0.30025515018719345,0,0,1,1,0,0,0,0,,
40.783104191500044,1200,,,,-0.072265625,-0.016796875,-0.960546875,0.012254168440007287,0.46345807174448866,12.490060669187825,0.3130423059649453,1187,0,3.788593441232952,1.52307302357089,40.20217222701548,0.30429149525125826,0.12233179394763352,0.5265480971838692,-0.2717815810831175,-0.407299988901274,0.20546875,0.30117242236721053,0.1,0,1,1,0,0,0,0,,
41.033945191500024,1200,,,,-0.0767578125,-0.016015625,-0.9595703125,0.012330245389115794,0.46364724562866877,12.490471822434774,0.3135520636561928,1187,0,3.7880700830410605,1.5320885975284444,40.44517403010232,0.3026260458248984,0.12239758306898633,0.5257675925882077,-0.2715880617101511,-0.40731785131915493,0.206640625,0.3021067037337916,0,0,1,1,0,0,0,0,,
41.28627919150002,1200,,,,-0.0751953125,-0.012109375,-0.961328125,0.012379361294092051,0.46097179298171,12.490591211673054,0.3099675246998717,1186,0,3.7486700068819614,1.5372625525884254,41.00917991148295,0.29986599835074323,0.12297150413235208,0.5251796547815885,-0.27139074828883053,-0.407065226315404,0.2078125,0.3026602671188722,0.1,0,1,1,0,0,0,0,,
41.536158691499985,1200,,,,-0.0453125,-0.03046875,-0.951171875,0.012475666013158693,0.45771693764484583,12.490730148927787,0.31208463054960023,1185,0,3.765149350442448,1.548226572756805,41.12081573207657,0.29564312035439594,0.12157444185980751,0.5246682658086618,-0.2715562721252471,-0.40675789221154,0.2044921875,0.3033482264731834,0,0,1,1,0,0,0,0,,
41.783172691499956,1200,,,,-0.088671875,0.0068359375,-0.959375,0.012743394936382218,0.4501125664326678,12.490513846548499,0.3139270864427701,1185,0,3.7902645043937433,1.5808841749309601,41.70978532164596,0.2847402962582561,0.11875559132965932,0.523119213750864,-0.271906727025728,-0.40603986256964647,0.2076171875,0.3042144226063,0.1,0,1,1,0,0,0,0,,
42.034058691500036,1200,,,,-0.0591796875,-0.0263671875,-0.966015625,0.01286237145247579,0.44961627086937506,12.490708479097147,0.3114272888879686,1184,0,3.78015769097145,1.594665291151213,42.18657259586101,0.2819508149353749,0.11894546703045447,0.5223671599492178,-0.2720076335717326,-0.4059930007166882,0.2068359375,0.30469090047720854,0,0,1,1,0,0,0,0,,
42.28326069150004,1200,,,,-0.069921875,-0.0072265625,-0.9646484375,0.01274916291523213,0.4572321928589021,12.490187813601318,0.3126614878156754,1184,0,3.7847333424268568,1.580664475227366,41.76426987509781,0.2893132403357467,0.12081623100839886,0.5228359997045228,-0.2716991065739981,-0.40671212102081966,0.207421875,0.3053304875224859,0.1,0,1,1,0,0,0,0,,
42.532159691500006,1200,,,,-0.071484375,-0.0294921875,-0.958984375,0.012616702385450287,0.4617306899264795,12.490016671583884,0.31286758977663565,1185,0,3.781284623750475,1.5654299594076,41.400491522342804,0.29495459109900213,0.12211251045139608,0.5234324021097344,-0.27137930720876813,-0.4071368838510875,0.207421875,0.305896655563853,0,0,1,1,0,0,0,0,,
42.783140691499995,1200,,,,-0.0685546875,-0.0173828125,-0.9587890625,0.012661569190737377,0.4639644388458483,12.48984592624411,0.31761094193188955,1185,0,3.8244980165032567,1.5710644679467434,41.07946990369361,0.2953193011064572,0.12131452165741677,0.5232130100654802,-0.2714726612397665,-0.4073478017418509,0.2064453125,0.30680860751279665,0.1,0,1,1,0,0,0,0,,
43.03170019150004,1200,,,,-0.0630859375,-0.013671875,-0.96484375,0.012729517259621122,0.4650257597282763,12.490095781216707,0.31670357520113185,1185,0,3.823889784196807,1.579229892662538,41.29943029051661,0.2944705132425529,0.12161443749406113,0.5223776075894865,-0.2711807154038735,-0.4074480151364738,0.208984375,0.3075541488336978,0.1,0,1,1,0,0,0,0,,
43.28249269150002,1200,,,,-0.05859375,-0.03359375,-0.95859375,0.012787173225516818,0.46373045343683655,12.490854762811084,0.3122098504737268,1185,0,3.786304443791561,1.586297490746002,41.897782033213005,0.292335413120932,0.122477550678532,0.522451907209082,-0.2716074746857234,-0.4073257080729921,0.2095703125,0.3079167456890673,0.1,0,1,1,0,0,0,0,,
43.54436969150002,1200,,,,-0.0802734375,-0.01015625,-0.9595703125,0.012600870955911576,0.4459794746996568,12.490226312741962,0.3133343684846816,1185,0,3.7976160089072453,1.5638530025845565,41.18692751158261,0.28519652496645476,0.11745807155499538,0.5238416550401939,-0.271632157106133,-0.40564960250814186,0.205078125,0.3082340033161368,0,0,1,1,0,0,0,0,,
43.808052691499995,1200,,,,-0.069921875,-0.01953125,-0.959375,0.012509839829638835,0.44858198481105205,12.489965605286642,0.3145736269371651,1186,0,3.8037751830773323,1.5532744357314503,40.83624308721771,0.2888166207941461,0.11792832389760016,0.5246477778711798,-0.2717536482834927,-0.40589534003872385,0.2009765625,0.3088262420992196,0.1,0,1,1,0,0,0,0,,
44.064310191499985,1200,,,,-0.0625,-0.012109375,-0.9578125,0.012309839379190078,0.4644593479536206,12.490220930781977,0.3145101126985597,1185,0,3.8075129244039765,1.528005383893882,40.131199162449526,0.30397704891290217,0.12198811572975925,0.525980001632762,-0.27164260055691847,-0.40739453268113673,0.201171875,0.30928629701079796,0,0,1,1,0,0,0,0,,
44.33314169149999,1200,,,,-0.0748046875,-0.00703125,-0.96171875,0.012201708426972557,0.4604858142572317,12.490728940008035,0.3121107336746221,1185,0,3.7802539291394743,1.5145802021229096,40.06572666241948,0.30403470238863145,0.12181349279310111,0.5271026945848456,-0.2719291396807921,-0.4070193386121648,0.2048828125,0.3094834516875112,0.1,0,1,1,0,0,0,0,,
44.58356169149998,1200,,,,-0.063671875,-0.0060546875,-0.9650390625,0.012155309547650834,0.4551662569398204,12.490203536475041,0.31216406969055266,1185,0,3.7840747236023966,1.508677296370362,39.870365969720524,0.3017013808389395,0.12028818197416641,0.5273240851616718,-0.2718278670662622,-0.4065170485833013,0.2005859375,0.3096623992229332,0,0,1,1,0,0,0,0,,
44.83547969149996,1200,,,,-0.06953125,-0.02578125,-0.95390625,0.01225035227543207,0.45371902590422486,12.490452463650174,0.31564802090159966,1186,0,3.7987406318121173,1.520901051896114,40.037403496032404,0.2983251025836495,0.11944199028878019,0.5263311253756885,-0.2715707071974515,-0.4063803962877688,0.20546875,0.310142811300529,0,0,1,1,0,0,0,0,,
45.08723369149999,1200,,,,-0.064453125,0.0048828125,-0.965625,0.01231359708553306,0.45620803039467667,12.490191430678992,0.31510249049424616,1185,0,3.803868733824435,1.5286065809870217,40.185827595321385,0.2984511147820904,0.11993433764398403,0.5261664693108646,-0.27182683554945475,-0.406615416245775,0.203515625,0.3105666578764922,0.1,0,1,1,0,0,0,0,,
45.33150719150002,1200,,,,-0.076953125,-0.0205078125,-0.958203125,0.012321360628035832,0.4533540264422392,12.490222660937022,0.3132957472488113,1185,0,3.7776502347706113,1.5289498293683244,40.47384174712208,0.29651749149955337,0.12000992828515694,0.5260145723759289,-0.27174486539461723,-0.4063459318428241,0.201953125,0.31074190851951566,0.1,0,1,1,0,0,0,0,,
45.582523691499986,1200,,,,-0.060546875,-0.0310546875,-0.9623046875,0.012469376702393592,0.4530571951166128,12.49034177276019,0.31190309303525804,1185,0,3.7717035447526017,1.5478440841475773,41.03856713609332,0.2927032803946183,0.12012125104295306,0.5254531682945516,-0.27219268155293436,-0.4063179040566343,0.204296875,0.3107935143916463,0,0,1,1,0,0,0,0,,
45.83243119150004,1200,,,,-0.0798828125,-0.011328125,-0.957421875,0.012522209262781478,0.45545345265713216,12.491066421072848,0.31189065791118775,1186,0,3.7709196296195424,1.5546755716971907,41.23010408630783,0.2929578782297969,0.12078655962336575,0.5247019597636022,-0.27187813959232676,-0.4065441665437876,0.2015625,0.31091615302062414,0.1,0,1,1,0,0,0,0,,
46.083961191499974,1200,,,,-0.075390625,-0.0109375,-0.9578125,0.012590783481943407,0.46130531947693554,12.490391976577175,0.31482230805818584,1186,0,3.7931267221306397,1.5632507254268904,41.215479216927264,0.2950934598895562,0.12162288257820646,0.5239734211802396,-0.27168216788297184,-0.4070967189797212,0.201953125,0.3111657110918939,0,0,1,1,0,0,0,0,,
46.352414691499995,1200,,,,-0.0763671875,-0.0107421875,-0.9630859375,0.012606176399589103,0.46276769064038903,12.48999202805457,0.3161355843255491,1186,0,3.808308122270237,1.5650683645273606,41.09739559352559,0.29568509487152284,0.12151803878020848,0.5235356163266743,-0.27140196910166725,-0.4072348008557256,0.2099609375,0.3116560992304521,0,0,1,1,0,0,0,0,,
46.60926519149998,1200,,,,-0.0669921875,-0.022265625,-0.9552734375,0.012640824058734632,0.4578419879263883,12.490481372486956,0.30830658338489003,1185,0,3.7373673124925446,1.569176570105276,41.98680922955367,0.2917727174176649,0.12250611384364482,0.5236733394499351,-0.2717385827967762,-0.40676969986878986,0.2083984375,0.31134272879413205,0,0,1,1,0,0,0,0,,
46.857901691500004,1200,,,,-0.0767578125,-0.002734375,-0.953125,0.012669507925561119,0.4577404403232238,12.490399302207376,0.3111179505426304,1185,0,3.7559242010723963,1.572441257199381,41.86668907419208,0.29110505358093597,0.12187574559874481,0.5240568299405096,-0.2722493346818707,-0.40676011141142754,0.20703125,0.3112820513396364,0,0,1,1,0,0,0,0,,
47.10843569150002,1000,,,,-0.08046875,-0.0248046875,-0.9716796875,0.012175289226168774,0.4611154614793148,12.49399869400959,0.22009936690016993,1086,0,2.616806075686629,1.3876434090719776,57.09691342521673,0.3387210752658891,0.19278433975973133,0.5226278539882205,-0.2679090431590757,-0.40707879196560814,0.209765625,0.30471138012078863,0.1,0,1,1,0,0,0,0,,
47.35618569149999,1000,,,,-0.0732421875,-0.0232421875,-0.961328125,0.0020752552823563183,0.4277135191238319,12.499124221706927,0.0955529956125416,984,0,1.0688406953416991,0.22045554318798527,18.606004386675707,0,0.41017068833963594,0.5574188771875636,-0.23432290305782993,-0.4039248711431144,0.1953125,0.28670697715778554,0.1,0,1,1,0,0,0,0,,
47.611649691500006,1000,,,,-0.0623046875,-0.0171875,-0.9587890625,-0.0013168231385783376,0.33022049928132596,12.500482385733743,0.06337892901418425,836,0,0.6717605913148249,0.11385250753413849,17.507627448572876,0,0.4916387802452052,0.5703982737480731,-0.2241582588246124,-0.3947192608209172,0.17734375,0.26889554013016836,0,0,1,1,0,0,0,0,,
47.860210691500015,1000,,,,-0.0892578125,-0.0064453125,-0.9642578125,-0.0022172749508457784,0.23649683075887576,12.500573845017552,0.05655301014522581,713,0,0.5868405690173295,0.1650900431851944,28.294819508772765,0,0.4021743776917012,0.5739327663517593,-0.22153664501212672,-0.38586956499881386,0.178515625,0.2528384148946988,0,0,1,1,0,0,0,0,,
48.10806819149999,1000,,,,-0.0826171875,-0.0119140625,-0.960546875,-0.0026415650793126712,0.17082234539768662,12.500726435475597,0.050969928266981726,609,0,0.5171761074748271,0.16844531974734464,32.568323963256915,0.27470902772398753,0.3298670471295534,0.574979742950909,-0.2197687075632388,-0.3796683649403625,0.177734375,0.2376140404221599,0,0,1,1,0,0,0,0,,
48.356284691500015,1000,,,,-0.06875,-0.01875,-0.96015625,-0.00264432169435098,0.1150118401428618,12.500095597313337,0.05416139000747724,518,0,0.5474553824055107,0.1435718177210385,26.307166922221235,0.798653138506793,0.2110171049807456,0.5750965241466859,-0.2198519384763898,-0.37439855419810814,0.16015625,0.22385460959394282,0.1,0,1,1,0,0,0,0,,
48.6074396915,1000,,,,-0.0732421875,-0.0232421875,-0.9583984375,-0.0025193860439603763,0.07012395514951382,12.500197649003098,0.05256459500538073,475,0,0.5299195177654833,0.12534876647074644,23.703910553002675,0.5580753984721474,0.1317910094332106,0.5746332546582041,-0.220239049522778,-0.37016009304361824,0.14765625,0.21089871417496978,0,0,1,1,0,0,0,0,,
48.857366691499976,1000,,,,-0.0787109375,-0.007421875,-0.9638671875,-0.002368926642729455,0.04299906417287467,12.50087457940894,0.05189339714822849,396,0,0.5060477503017051,0.09889974996426633,19.721490699912195,0.3027369508170788,0.07963063334730767,0.5742168693875999,-0.22082713361138628,-0.3675988719760341,0.15859375,0.19884924977139062,0.1,0,1,1,0,0,0,0,,
49.10800519149997,1000,,,,-0.063671875,-0.022265625,-0.95703125,-0.0022505076863516367,0.026369399973345205,12.500681627092614,0.051723438624097305,0,0,0.5188655454751855,0,0,0,0,0.5737373293183652,-0.221159229032223,-0.3660286446032727,0.147265625,0.18773311194154668,0.1,0,1,1,0,0,0,0,,
49.355063691500014,1000,,,,-0.066796875,-0.015234375,-0.9623046875,-0.002132755961075739,0.017235918097677428,12.500829129994745,0.05098344215701485,0,0,0.49349008061355404,0,0,0,0,0.5737262332554469,-0.22189056432754084,-0.3651662313231418,0.1328125,0.17750526611106604,0,0,1,1,0,0,0,0,,
49.60968919150002,1000,,,,-0.071875,-0.012109375,-0.9599609375,-0.0020165736677221933,0.00849377970637951,12.50071254486095,0.05340022459255702,0,0,0.5297873435898701,0,0,0,0,0.5731229871028309,-0.222102047305388,-0.36434076997685255,0.1248046875,0.16802176791229584,0.1,0,1,1,0,0,0,0,,
49.85796169150004,1000,,,,-0.0708984375,-0.0115234375,-0.96640625,-0.001801011822599214,0.00044384554088604657,12.501264324150231,0.050566522956262794,0,0,0.49443044789139323,0,0,0,0,0.5715684579378395,-0.2221195509183745,-0.36358066882123563,0.118359375,0.15917053316021373,0,0,1,1,0,0,0,0,,
50.1079706915,1000,,,,-0.063671875,-0.016796875,-0.9705078125,-0.0025542634640293243,-0.007195058807396879,12.501292798244682,0.04635068519705921,0,0,0.4573964306223301,0,0,0,0,0.5764271751561544,-0.22156457981024688,-0.36285937844749977,0.1078125,0.15060077714423523,0.1,0,1,1,0,0,0,0,,
50.35918069149994,1000,,,,-0.0625,-0.03671875,-0.9521484375,-0.002572968961582563,-0.006101632322746664,12.501034029160595,0.04396263646805458,0,0,0.41233096949750403,0,0,0,0,0.5806648626389539,-0.2250965092095246,-0.3629626233582629,0.0939453125,0.14250342967388768,0.2,0,1,1,0,0,0,0,,
50.607051691500004,1000,,,,-0.0625,-0.0380859375,-0.9505859375,0.00020605011716110836,-0.0010995893061164993,12.500785290832548,0.04641539915980794,0,0,0.448626505358442,0,0,0,0,0.5697946662934678,-0.23322030273653432,-0.36343493264666465,0.082421875,0.1352565677301118,0,0,1,1,0,0,0,0,,
50.86154719150001,1000,,,,-0.0625,-0.03828125,-0.9509765625,0.0016102367497048149,-0.0000816979235349848,12.5007326876751,0.04783096160439455,0,0,0.470527403732054,0,0,0,0,0.562868037566446,-0.23608999647190893,-0.3635310452856362,0.074609375,0.12859746496606156,0,0,1,1,0,0,0,0,,
51.109345191500054,1000,,,,-0.0625,-0.037890625,-0.949609375,0.0019159741286473998,-0.001738702903545248,12.500931690811248,0.04137160777259106,0,0,0.39425461222987584,0,0,0,0,0.5612409352763595,-0.23661238062487824,-0.36337458544704937,0.0693359375,0.12200659072245593,0,0,1,1,0,0,0,0,,
51.35686419149996,1000,,,,-0.0625,-0.0376953125,-0.950390625,0.0019239835588036505,-0.007723293152547246,12.500991056054113,0.043824834396984896,0,0,0.42715299334623646,0,0,0,0,0.5608823480516296,-0.236353949690902,-0.3628095008301266,0.065625,0.11613646377034251,0.1,0,1,1,0,0,0,0,,
51.609087191499974,1000,,,,-0.0625,-0.037890625,-0.950390625,0.002061835880021767,-0.012909506443773386,12.50060636958391,0.04550832351234578,0,0,0.4400756718057376,0,0,0,0,0.560452840535345,-0.2368514090049755,-0.36231980158105276,0.0630859375,0.11081337643222511,0.1,0,1,1,0,0,0,0,,
51.8579276915,1000,,,,-0.0625,-0.0380859375,-0.9501953125,0.0020797700421810237,-0.010318039817733604,12.500895464847298,0.04542086543358198,0,0,0.43504642464353277,0,0,0,0,0.5600437111940002,-0.23661189589891185,-0.3625644963495688,0.0615234375,0.10587447424034613,0,0,1,1,0,0,0,0,,
52.10623369149998,1000,,,,-0.0625,-0.0375,-0.950390625,0.0020541990928927742,-0.015198308914678901,12.500580102663566,0.04439118508609809,0,0,0.4238569020575385,0,0,0,0,0.5601848069837635,-0.23657251992621978,-0.36210368535359694,0.060546875,0.10124445914753058,0,0,1,1,0,0,0,0,,
52.35902219149993,1000,,,,-0.0625,-0.038671875,-0.95078125,0.0021005179892107074,-0.01900820597871417,12.500899504570992,0.04421236231513256,0,0,0.425943151647581,0,0,0,0,0.560214980523063,-0.23688994387875803,-0.36174394239152796,0.0595703125,0.09688879617797666,0,0,1,1,0,0,0,0,,
52.60932919149997,1000,,,,-0.0625,-0.0375,-0.95078125,0.002086539376135613,-0.018660791381751307,12.501436953867621,0.0447461185320125,0,0,0.4341983297137764,0,0,0,0,0.5602792373236904,-0.23685733060892716,-0.36177674641590885,0.05859375,0.09299866327635008,0,0,1,1,0,0,0,0,,
52.86139469149998,1000,,,,-0.0625,-0.0376953125,-0.950390625,0.002038210709191628,-0.0076141591727552325,12.50145366197685,0.04618694017392423,0,0,0.44268364030019713,0,0,0,0,0.5605843565010152,-0.236816025399505,-0.3628198056180232,0.05859375,0.08939364523227777,0,0,1,1,0,0,0,0,,
53.10955269150001,1000,,,,-0.0625,-0.0375,-0.95078125,0.002007918036724749,-0.003541959168592685,12.501035706150846,0.04571807964342162,0,0,0.4419318974163479,0,0,0,0,0.5607982564528963,-0.23680964157266962,-0.36320431608300763,0.05859375,0.08616814069429177,0,0,1,1,0,0,0,0,,
53.35779269150002,1000,,,,-0.0625,-0.0373046875,-0.951953125,0.0020632933734569233,-0.004402970513125314,12.501235575262944,0.04546976443746264,0,0,0.4399854797236302,0,0,0,0,0.5606417821781282,-0.23702330175561626,-0.3631230165711701,0.05859375,0.08309397245849977,0,0,1,1,0,0,0,0,,
53.60857619150005,1000,,,,-0.0625,-0.0376953125,-0.950390625,0.002083721176590058,-0.009481572028248326,12.501215446708816,0.04258196330202482,0,0,0.3958013399542978,0,0,0,0,0.5602744816683743,-0.23683550283883953,-0.3626434783785336,0.05859375,0.0800158868908242,0,0,1,1,0,0,0,0,,
53.859170191499985,1000,,,,-0.0625,-0.0376953125,-0.9501953125,0.0020029879788014482,-0.006831613675173039,12.500639052044693,0.04386379344342761,0,0,0.4095564802843694,0,0,0,0,0.5605691288097248,-0.23658129012076876,-0.36289369612753636,0.05859375,0.07722704386289844,0,0,1,1,0,0,0,0,,
54.10782669150001,1000,,,,-0.0625,-0.037890625,-0.95078125,0.0020312821572337466,-0.011066750005325273,12.499969497084493,0.04665396792529235,0,0,0.45191571993631785,0,0,0,0,0.5606756558382621,-0.23685106082329774,-0.3624938006808701,0.05859375,0.07499278979041138,0.1,0,1,1,0,0,0,0,,
54.36115719149998,1000,,,,-0.0625,-0.03828125,-0.9501953125,0.0020385933776592086,-0.014355150381852722,12.500211180289828,0.04706044041435588,0,0,0.45950027142606376,0,0,0,0,0.560784688518944,-0.23699096510636744,-0.36218329914446695,0.05859375,0.07286289286520127,0.2,0,1,1,0,0,0,0,,
54.60761969149998,1000,,,,-0.0625,-0.03828125,-0.950390625,0.002028191903502725,-0.015781072229579026,12.500450555692883,0.04548828225844411,0,0,0.44294278560698225,0,0,0,0,0.5608237459913845,-0.23695915670484458,-0.3620486589322621,0.05859375,0.07081591085383747,0,0,1,1,0,0,0,0,,
54.856828691499985,1000,,,,-0.0625,-0.0376953125,-0.95078125,0.001964075212988239,-0.013630279352021366,12.500766632962538,0.04519060694285812,0,0,0.43145349147077505,0,0,0,0,0.560846914380239,-0.23657568905261245,-0.36225174384179254,0.05859375,0.0689092707803275,0.1,0,1,1,0,0,0,0,,
55.1069791915,1000,,,,-0.0625,-0.037890625,-0.95078125,0.001988708471068387,-0.009290755900719986,12.501076447898454,0.04443299175576547,0,0,0.4137611768233948,0,0,0,0,0.5608254559366832,-0.23671220037444568,-0.36266149586241153,0.05859375,0.06698016407921367,0.1,0,1,1,0,0,0,0,,
55.357878691500034,1000,,,,-0.0625,-0.03828125,-0.9505859375,0.001990889210227209,-0.0033556921524126974,12.501347983418537,0.04654526928023868,0,0,0.4472634359809867,0,0,0,0,0.5606025037886522,-0.23653390844140426,-0.36322190402488896,0.05859375,0.06549871597868477,0.1,0,1,1,0,0,0,0,,
55.61093869150004,1000,,,,-0.0625,-0.0375,-0.95078125,0.0019927533594868885,-0.004922222423653181,12.50113654522253,0.04160130491146373,0,0,0.387393575843364,0,0,0,0,0.560485603136452,-0.23644495927151343,-0.36307398710470073,0.05859375,0.0636223217749544,0,0,1,1,0,0,0,0,,
55.8593761915,1000,,,,-0.0625,-0.037890625,-0.951171875,0.0020934338155291065,-0.010774916412437822,12.501003892968175,0.041207573576016135,0,0,0.3768517968569206,0,0,0,0,0.5601873203297534,-0.2368215486050101,-0.36252135656476187,0.05859375,0.061931883900650284,0,0,1,1,0,0,0,0,,
56.10724769149998,1000,,,,-0.0625,-0.037890625,-0.9501953125,0.0021150890769066205,-0.011485694366103352,12.50094659291246,0.04279332417945053,0,0,0.38617580082582553,0,0,0,0,0.5602917027512894,-0.237047700370813,-0.362454242581857,0.05859375,0.060473179500226196,0.1,0,1,1,0,0,0,0,,
56.35947069149999,1000,,,,-0.0625,-0.0380859375,-0.95078125,0.0021154683675613625,-0.007881318650545317,12.500754901926099,0.04254543535995374,0,0,0.3938435082739744,0,0,0,0,0.559982543954636,-0.23678382999809405,-0.3627945795449117,0.05859375,0.059123663411714454,0.1,0,1,1,0,0,0,0,,
56.60866169149997,1000,,,,-0.0625,-0.0376953125,-0.95078125,0.0020656753086524676,-0.004378008504251598,12.500772125870277,0.041080326065167094,0,0,0.3768474923747578,0,0,0,0,0.5602864893818635,-0.23673229999407447,-0.36312537356582386,0.05859375,0.05778957114619251,0,0,1,1,0,0,0,0,,
56.86077669150003,1000,,,,-0.0625,-0.0376953125,-0.9505859375,0.0020307658258888832,0.0021589324601435558,12.500855697340615,0.041204439508519465,0,0,0.38024570071127095,0,0,0,0,0.5605005271577834,-0.23669698598511285,-0.36374261294680355,0.05859375,0.056462311708359025,0,0,1,1,0,0,0,0,,
57.11276769149995,1000,,,,-0.0625,-0.037890625,-0.95078125,0.0020031074022744946,0.0008309484742487781,12.501168628068733,0.043815218232920505,0,0,0.4128801571349161,0,0,0,0,0.560537860981992,-0.23655511273644972,-0.363617220348359,0.05859375,0.05557460830641742,0.1,0,1,1,0,0,0,0,,
57.35776919149996,1000,,,,-0.0625,-0.0375,-0.95,0.0020184334277751717,-0.0005137879425572145,12.501085761134167,0.048256776183733245,0,0,0.4815059040776998,0,0,0,0,0.5605284269310984,-0.23664341890135243,-0.3634902459305065,0.05859375,0.05503072964811494,0.1,0,1,1,0,0,0,0,,
57.60699919149995,1000,,,,-0.0625,-0.037890625,-0.9501953125,0.0020838051799180113,0.0014128910891272675,12.500989848812868,0.04875867980239386,0,0,0.4898247482319479,0,0,0,0,0.5602755977110905,-0.2368369925557233,-0.3636721692765089,0.05859375,0.0546512779743219,0,0,1,1,0,0,0,0,,
57.85623269149994,1000,,,,-0.0625,-0.037890625,-0.95078125,0.002075408075249701,0.00034401863366000524,12.501075510925476,0.04551395243079103,0,0,0.43393034700364463,0,0,0,0,0.5602538147120707,-0.2367653979624555,-0.36357124283762077,0.05859375,0.053895630617409776,0.1,0,1,1,0,0,0,0,,
58.10789969150003,1000,,,,-0.0625,-0.0380859375,-0.95078125,0.002069499557339151,-0.009360232696809767,12.500927955500277,0.043480066955255796,0,0,0.3958616665825003,0,0,0,0,0.5604786761911065,-0.23692187915763738,-0.3626549356357177,0.05859375,0.05309964366603802,0.1,0,1,1,0,0,0,0,,
58.3577846915,1000,,,,-0.0625,-0.03828125,-0.950390625,0.002008148907157313,-0.012990871618603114,12.500701541028349,0.042155414894355134,0,0,0.3909511104470235,0,0,0,0,0.5606181084444536,-0.23665594531715786,-0.3623121188146917,0.05859375,0.05220195889950827,0,0,1,1,0,0,0,0,,
58.606696191500056,1000,,,,-0.0625,-0.037890625,-0.950390625,0.0020324453001058724,-0.009382520509624128,12.5001634014038,0.04495211495924015,0,0,0.42557136029949616,0,0,0,0,0.5606151341038975,-0.23680625615607398,-0.3626528311474166,0.05859375,0.05172367758023808,0,0,1,1,0,0,0,0,,
58.8581851915,1000,,,,-0.0625,-0.037890625,-0.9501953125,0.0020808176293542727,-0.008592457566107778,12.500389794088424,0.04203681314329049,0,0,0.3774488586734792,0,0,0,0,0.5602218756158024,-0.2367719278602179,-0.36272743147880193,0.05859375,0.050966392829725406,0,0,1,1,0,0,0,0,,
59.1098726915,1000,,,,-0.0625,-0.0380859375,-0.9501953125,0.002118567468349682,-0.011987361048989308,12.500807710573076,0.04154036721785971,0,0,0.39223669290227964,0,0,0,0,0.5597952916191186,-0.23664206213170208,-0.362406873570191,0.05859375,0.05023406213261024,0.2,0,1,1,0,0,0,0,,
59.35857219150002,1000,,,,-0.0625,-0.037890625,-0.950390625,0.00216499614216046,-0.012899345391562525,12.500634296272262,0.04107813547587106,0,0,0.36924389285007375,0,0,0,0,0.5596475274708114,-0.2368069315091536,-0.3623207610208902,0.05859375,0.04954469404697358,0.1,0,1,1,0,0,0,0,,
59.6093061915,1000,,,,-0.0625,-0.0376953125,-0.9505859375,0.002129029997615175,-0.012540868830219218,12.50047160202629,0.04349571384595978,0,0,0.40730051251097044,0,0,0,0,0.5596829730987853,-0.23661116007099614,-0.3623546095521871,0.05859375,0.04907951208593405,0,0,1,1,0,0,0,0,,
59.85795669150001,1000,,,,-0.0625,-0.037890625,-0.9501953125,0.0020806638252812227,-0.005405043397319676,12.500809422040101,0.045660615826512,0,0,0.43221412908976503,0,0,0,0,0.5600442031761149,-0.23661794327455246,-0.36302839756663796,0.05859375,0.04888736323452191,0,0,1,1,0,0,0,0,,
60.107575191500004,1000,,,,-0.0625,-0.037890625,-0.9505859375,0.002095609583676935,-0.008909554529746566,12.501956534356651,0.04258017363083967,0,0,0.3859048786243763,0,0,0,0,0.560218901199548,-0.23686243689148756,-0.36269749014468056,0.05859375,0.048369890729137194,0,0,1,1,0,0,0,0,,
60.35873519149999,1000,,,,-0.0625,-0.0376953125,-0.950390625,0.002114775581228471,-0.015574869128745774,12.50133753683549,0.04261401015350411,0,0,0.3912356788506527,0,0,0,0,0.5600904916000404,-0.23687243876171288,-0.3620681293045674,0.05859375,0.047912744338840664,0,0,1,1,0,0,0,0,,
60.60695819150004,1000,,,,-0.0625,-0.03828125,-0.95078125,0.0021128861575121856,-0.014464965352920182,12.500339767350773,0.04318145821124504,0,0,0.3931960337857493,0,0,0,0,0.560053503166994,-0.23682869499255993,-0.36217293005514317,0.05859375,0.04755983353597283,0.1,0,1,1,0,0,0,0,,
60.85801269149998,1000,,,,-0.0625,-0.0376953125,-0.950390625,0.00214363735019336,-0.014248940032793825,12.500529203996873,0.04583605482773299,0,0,0.4324899981604659,0,0,0,0,0.5599343798606001,-0.23691958831974466,-0.3621933278735718,0.05859375,0.047465516988484543,0,0,1,1,0,0,0,0,,
61.10932769150003,1000,,,,-0.0625,-0.0373046875,-0.9505859375,0.0021997883929435287,-0.012867325506655064,12.500902678463538,0.043410650947571724,0,0,0.39446624971199784,0,0,0,0,0.559735865695653,-0.2371019232109001,-0.3623237844433209,0.05859375,0.04712386160627743,0.1,0,1,1,0,0,0,0,,
61.35755319150009,1000,,,,-0.0625,-0.0373046875,-0.9509765625,0.0021103366690724875,-0.008413359128178217,12.50139431542105,0.04348597110030768,0,0,0.39973601553321564,0,0,0,0,0.5598944445364417,-0.23667566758033556,-0.36274434254004057,0.05859375,0.046888773317327194,0.1,0,1,1,0,0,0,0,,
61.6071466915,1000,,,,-0.0625,-0.0373046875,-0.9509765625,0.0020920971994651373,-0.007024296382287008,12.50126905903567,0.042425488880623516,0,0,0.37344925413790686,0,0,0,0,0.5601725486424123,-0.2368004168210036,-0.36287550239509897,0.05859375,0.04647273264493083,0,0,1,1,0,0,0,0,,
61.85806719150003,1000,,,,-0.0625,-0.0380859375,-0.9509765625,0.0021316039368564806,-0.009210433427008122,12.50146861609085,0.04675351339655266,0,0,0.4323612492032726,0,0,0,0,0.5599953192432033,-0.23689635714846102,-0.3626690801735172,0.05859375,0.046572264592931255,0,0,1,1,0,0,0,0,,
62.10964069150001,1300,,,,-0.0841796875,-0.0119140625,-0.955859375,0.0031718354874795893,0.00043493485881366124,12.476085014300569,0.6003003106608367,110,0,7.294833948838646,0.044401007389704136,0.3532992186715537,0.07472385330423614,0.00011630697943383953,0.5596367220357265,-0.24313263906582055,-0.3635798274454427,0.1056640625,0.0865111542430764,0,0,1,1,0,0,0,0,,
62.35881469150006,1300,,,,-0.07265625,-0.0134765625,-0.9640625,0.04259404269453122,0.07389562041206194,12.473345233892857,0.8222087970842115,1189,0,10.043214137690532,5.291717127918802,53.76603785783745,0.013876456097873024,0.008339723378490252,0.5283389227838221,-0.46422179103689265,-0.3705162260337428,0.1720703125,0.15498688687225567,0,0,1,1,0,0,0,0,,
62.61367719150002,1300,,,,-0.0685546875,-0.016796875,-0.9599609375,0.033201379113871485,0.3763817251276962,12.481275061030573,0.5776896496600121,1341,0,7.0530705991206215,4.651766154530191,65.84983643100334,0.08261629204062418,0.05406210144042221,0.48385059955576404,-0.3668086518163039,-0.399077954990234,0.169140625,0.18304439068054912,0.1,0,1,1,0,0,0,0,,
62.86032319150005,1300,,,,-0.05859375,-0.034765625,-0.9541015625,0.026414616666895773,0.5486764738227494,12.483201677459947,0.5150966615889736,1418,0,6.2954661161900685,3.9210769501170857,62.26880009383067,0.14059022878225313,0.0872160856084476,0.48413142957433897,-0.32434833413948183,-0.4153465896023302,0.159375,0.20666608299386455,0.1,0,1,1,0,0,0,0,,
63.112108191499985,1300,,,,-0.0646484375,-0.0171875,-0.9548828125,0.022765343976102238,0.6386540987034682,12.483583309570765,0.49548110362965236,1459,0,6.06445183871355,3.4767254895082367,57.32825717188579,0.18382597791277944,0.10534876676490498,0.4907740342860116,-0.3071079926835233,-0.4238425717116832,0.1453125,0.22824516862730526,0.1,0,1,1,0,0,0,0,,
63.3629416915,1300,,,,-0.0693359375,-0.0203125,-0.96015625,0.021360289083821562,0.6911381941619897,12.483883842014983,0.4810023179167642,1481,0,5.888149872325261,3.3116407923008593,56.24073512016663,0.20875892615052277,0.11738358231999774,0.494695316566775,-0.3016445410469569,-0.42879829194359986,0.1392578125,0.24734404776377134,0.1,0,1,1,0,0,0,0,,
63.60744419150005,1300,,,,-0.0681640625,-0.0189453125,-0.958984375,0.02066754750639799,0.7149094750257834,12.48434693704775,0.48158248310345647,1493,0,5.9056986481232325,3.2314245748805384,54.717934978503,0.22126938270697802,0.1210612378587172,0.49698914468234284,-0.2992613383765496,-0.4310428541578495,0.1388671875,0.26457271298371754,0,0,1,1,0,0,0,0,,
63.85872469150005,1300,,,,-0.06796875,0.000390625,-0.9576171875,0.02030049207982594,0.7313091767507971,12.48517267989266,0.474247751316583,1500,0,5.80435068276232,3.1890845493605835,54.943497225987855,0.22931468384174494,0.1259950638567828,0.4984389904368851,-0.2982004835996167,-0.4325913677204064,0.139453125,0.28042640216273035,0,0,1,1,0,0,0,0,,
64.10756719150002,1300,,,,-0.0826171875,0.0080078125,-0.964453125,0.020198302287969462,0.7502960569401201,12.484667742641465,0.48030332760435446,1503,0,5.886817611624272,3.179334186954158,54.008658180322456,0.2360262291452802,0.12745293122959245,0.49833964174202255,-0.2974719453357823,-0.4343841711492007,0.1443359375,0.29548032968477533,0,0,1,1,0,0,0,0,,
64.35759269150002,1300,,,,-0.067578125,-0.02578125,-0.953125,0.01968809023050162,0.7595441017275024,12.48477797501589,0.47906011687924366,1506,0,5.871219200243222,3.1041019046342764,52.86994169178187,0.24469274899664112,0.12936734886993081,0.5012409491642507,-0.29676039431027185,-0.43525740183476574,0.144140625,0.30939057852714236,0,0,1,1,0,0,0,0,,
64.6085206915,1300,,,,-0.0681640625,-0.00546875,-0.95234375,0.019687092032404728,0.7520365512702218,12.484801031008056,0.4754260331219105,1506,0,5.82353148903104,3.105189961050476,53.32172502585282,0.24218700664392323,0.12913837991615154,0.5010523110373891,-0.29659165283398936,-0.4345485143257358,0.1412109375,0.321939970069932,0,0,1,1,0,0,0,0,,
64.85791469149997,1300,,,,-0.0689453125,-0.0203125,-0.9623046875,0.01959925614747333,0.7552252824175916,12.484845921634575,0.4751095543421638,1506,0,5.821779695082997,3.0908378732224513,53.093009829228166,0.2443448732811119,0.12972770400290395,0.501318010508904,-0.2962678195422936,-0.43484960476700385,0.13984375,0.33337372464663384,0.1,0,1,1,0,0,0,0,,
65.10936719150001,1300,,,,-0.0712890625,-0.01171875,-0.9580078125,0.019605541946147713,0.7557717706424865,12.485029321137237,0.4820534820665546,1506,0,5.901423927419047,3.092067769442586,52.39549733134803,0.24442295224577498,0.12806661885200393,0.5011436239667327,-0.2961571827253669,-0.4349012059755024,0.1388671875,0.34481292420792636,0.2,0,1,1,0,0,0,0,,
65.35889919149999,1300,,,,-0.0677734375,-0.012109375,-0.9626953125,0.019615990725300958,0.7533843583183615,12.484963453386786,0.48145124544649487,1506,0,5.898279020757504,3.0943691240851874,52.46235881116004,0.24347370219341818,0.12773152084238398,0.5010456965734215,-0.29613858822102274,-0.4346757786826581,0.13984375,0.35513931152916023,0,0,1,1,0,0,0,0,,
65.60831019150001,1300,,,,-0.0671875,-0.0232421875,-0.959765625,0.019431532906574907,0.7573599027177155,12.484784835267723,0.4799238107527832,1506,0,5.87647968238565,3.06374261250812,52.13595805059282,0.24720364057907437,0.12888095133001545,0.5022305480727942,-0.2959984130016097,-0.43505116260879123,0.1412109375,0.3645344663457416,0.2,0,1,1,0,0,0,0,,
65.85792819150005,1300,,,,-0.07109375,-0.0056640625,-0.956640625,0.019413308315751755,0.756720849653374,12.484666701853495,0.47968063572810793,1506,0,5.880560804408023,3.0612450492990546,52.057116320710826,0.2471960363269442,0.12868206097355095,0.5021051213421744,-0.295775722955552,-0.43499082112490817,0.1421875,0.37315216292749753,0.1,0,1,1,0,0,0,0,,
66.11100169150001,1300,,,,-0.0689453125,-0.0185546875,-0.966015625,0.01958557423310701,0.7613540282544083,12.484610196467042,0.48031691976115,1506,0,5.878038744357985,3.088435582045279,52.54250663171466,0.24651896671302995,0.12952631326674788,0.5015532577312732,-0.29638433519338886,-0.43542830102678387,0.14375,0.3813705934344842,0.1,0,1,1,0,0,0,0,,
66.35877019150004,1300,,,,-0.073046875,-0.006640625,-0.9595703125,0.01970885679793899,0.7645763286632098,12.484346055213438,0.4805372812450036,1506,0,5.874838046423745,3.10907416380121,52.92195441303259,0.2459254616050161,0.13014670601785577,0.5005226569917993,-0.2962724423062598,-0.43573256118768977,0.1439453125,0.3887696672507647,0.1,0,1,1,0,0,0,0,,
66.60886169150001,1300,,,,-0.0712890625,-0.01484375,-0.9552734375,0.01978019227365823,0.7639814411393486,12.484308468424883,0.4779219662520334,1507,0,5.8422931219691865,3.1223296421683613,53.44448815691004,0.24468598361601715,0.13077201617219225,0.5001506458000432,-0.2964008964913118,-0.4356763899588259,0.1388671875,0.3955658936394533,0,0,1,1,0,0,0,0,,
66.85853269150007,1300,,,,-0.0720703125,-0.0224609375,-0.95703125,0.01959680242897651,0.7654610358296081,12.484959602254474,0.47673922793643164,1507,0,5.834559973066373,3.0935180841903476,53.021484960343685,0.24744060697672943,0.13119647366622283,0.5011869487385221,-0.29613950645143494,-0.4358160981366558,0.1384765625,0.4015892805742278,0,0,1,1,0,0,0,0,,
67.10780219150001,1300,,,,-0.0650390625,-0.015234375,-0.9646484375,0.019715941424715434,0.7599876091181701,12.485209673519472,0.47834673415059326,1507,0,5.842989837694698,3.1123241144929605,53.26600767441333,0.2441944242088294,0.1300696603770829,0.500386516754115,-0.2961997705689027,-0.43529927925552964,0.1384765625,0.4074052246255781,0,0,1,1,0,0,0,0,,
67.35909819149997,1300,,,,-0.0625,-0.0115234375,-0.9609375,0.019730748504081137,0.7565438343560337,12.485028506789522,0.47950706507207774,1507,0,5.865229957618454,3.1144175225441115,53.100060624090375,0.2429207765646048,0.1289887008911236,0.5005285422903352,-0.2964152530905757,-0.4349741067606284,0.1396484375,0.4129028122239388,0,0,1,1,0,0,0,0,,
67.61004769150003,1300,,,,-0.069140625,-0.0171875,-0.95625,0.019584488342505917,0.7596820580960582,12.48462780190042,0.4783420357170217,1507,0,5.860477065893701,3.090282265479873,52.73190273870737,0.24583260509843582,0.12962955067297047,0.5008096017566646,-0.29573704387969385,-0.4352704281270319,0.1396484375,0.41787401570415755,0,0,1,1,0,0,0,0,,
67.8594736915,1300,,,,-0.062109375,-0.0265625,-0.9626953125,0.019744812039715568,0.7611420599641038,12.48408716457558,0.4778103828673633,1507,0,5.830940177307499,3.1149635127711974,53.421675679441876,0.2443512891902154,0.1305356555339113,0.49970420688671846,-0.29579379811835776,-0.4354082862864018,0.13671875,0.4223682321417737,0,0,1,1,0,0,0,0,,
68.1084136915,1300,,,,-0.0681640625,0.000390625,-0.9595703125,0.019680977328645773,0.7662416418318844,12.484555238073238,0.4786819372433069,1507,0,5.861412761662363,3.1048802880411768,52.9715536235356,0.24678899103271887,0.1307268953598635,0.5001824525429288,-0.2958040309168874,-0.4358898055126682,0.13671875,0.4266160490040966,0.1,0,1,1,0,0,0,0,,
68.35843369150005,1300,,,,-0.0677734375,-0.02265625,-0.9619140625,0.019763842864654386,0.7612788740110831,12.484742516206474,0.4790231830775104,1507,0,5.855980331710764,3.1197593297248964,53.27556499267793,0.24402802871325233,0.13000210819026842,0.500374068337792,-0.2964904445438291,-0.43542120471692264,0.137890625,0.43056785351800303,0,0,1,1,0,0,0,0,,
68.60735919150001,1300,,,,-0.0650390625,-0.0248046875,-0.9529296875,0.019893753100008967,0.7562248022443382,12.484842818085069,0.48128067585209094,1508,0,5.886775569462523,3.1417729118751523,53.37140706291306,0.24070589672348378,0.12846360976955537,0.4996340271146761,-0.2966704914324034,-0.4349439827034879,0.1380859375,0.4344069471895896,0.1,0,1,1,0,0,0,0,,
68.85856769150003,1300,,,,-0.07109375,-0.0134765625,-0.959375,0.019609289895329375,0.7585318525299475,12.484327495131927,0.4798856657388947,1508,0,5.87090593195258,3.0968973907016983,52.74991538392243,0.24493847190325357,0.12920368661515816,0.5016075687470593,-0.2965803279592152,-0.4351618219493882,0.136328125,0.43787847226279275,0,0,1,1,0,0,0,0,,
69.10876069150001,1300,,,,-0.0658203125,-0.0212890625,-0.9546875,0.019656409451929677,0.7600785140690034,12.48446848860887,0.47874165769878835,1507,0,5.860663132655226,3.102901891289993,52.94484713260905,0.2449596634012324,0.12969190406734923,0.5004153058057013,-0.29584999055513655,-0.43530786279879335,0.137109375,0.44091912480788525,0.2,0,1,1,0,0,0,0,,
69.35773419149999,1300,,,,-0.0703125,-0.0115234375,-0.9591796875,0.019376838921369315,0.7665491655946274,12.48419144768215,0.4777767536347626,1507,0,5.844296434612504,3.0583412106779684,52.329800747895014,0.250671090539551,0.13116335216761327,0.502291589672389,-0.2957068503765603,-0.4359188429137991,0.137109375,0.4436955546003258,0,0,1,1,0,0,0,0,,
69.60870269150008,1300,,,,-0.0708984375,-0.0123046875,-0.9626953125,0.019444468093818848,0.764952611057008,12.483849097809744,0.4807496522319341,1507,0,5.876360100701598,3.068034372194279,52.20921543346905,0.24937507323413738,0.13017580283257707,0.5020764742530265,-0.2959471079358651,-0.4357680910040192,0.1392578125,0.4465081886517469,0.1,0,1,1,0,0,0,0,,
69.85836169150002,1300,,,,-0.07109375,-0.0125,-0.9658203125,0.01974373198996126,0.7538058774664053,12.484213231721663,0.4802297938560547,1506,0,5.889041479086215,3.114736946022519,52.89106007169403,0.24201280386802565,0.12800276229608926,0.5001904611650885,-0.29620577928835573,-0.43471557990151977,0.141015625,0.4490864383892916,0,0,1,1,0,0,0,0,,
70.10727319150006,1300,,,,-0.0626953125,-0.0125,-0.9517578125,0.01969535603961308,0.7570217388797682,12.48461335546028,0.47651034060977837,1507,0,5.836758228273111,3.107439184644877,53.23952827899724,0.2436165593399386,0.12970035947519637,0.5004984344931522,-0.29616663465320964,-0.43501923207138227,0.1392578125,0.4511070152825347,0.1,0,1,1,0,0,0,0,,
70.35909269149997,1300,,,,-0.06953125,-0.018359375,-0.9630859375,0.019874228026261116,0.7637979396200838,12.48472422402477,0.4787298292171071,1508,0,5.8711502567887965,3.137810980199168,53.44500035781201,0.2434240713715771,0.13009375831579897,0.4990012886580245,-0.29600270664335576,-0.435659063144223,0.13515625,0.45319725475570183,0.1,0,1,1,0,0,0,0,,
70.61172419150002,1300,,,,-0.067578125,-0.0212890625,-0.9599609375,0.01993462255834016,0.7672373721592541,12.484406743437741,0.47862020062253113,1508,0,5.840380164176447,3.1469902033125803,53.88318481363238,0.24384642499596146,0.13136902164418368,0.49914248387556565,-0.29650430943288986,-0.43598382563220667,0.1365234375,0.45514753440388295,0,0,1,1,0,0,0,0,,
70.86175069150002,1300,,,,-0.0662109375,-0.0185546875,-0.9583984375,0.01958526200978287,0.7657376949349002,12.48436321606342,0.4811854700174575,1507,0,5.877164678202525,3.0918106218659243,52.608051610958114,0.24766795924329618,0.13029371679173793,0.5016376758757098,-0.29645507413750644,-0.43584222119571703,0.136328125,0.45710996757555133,0,0,1,1,0,0,0,0,,
71.11008769150001,1300,,,,-0.06875,-0.0173828125,-0.9521484375,0.019537704713898374,0.7621283425834058,12.484069555196694,0.4809300917994035,1508,0,5.88527350235602,3.08501892383214,52.41992283762473,0.24704384675091787,0.129500340715864,0.5017593919890256,-0.29626067014013563,-0.43550141432239375,0.135546875,0.458951080718078,0.1,0,1,1,0,0,0,0,,
71.35966219150002,1300,,,,-0.070703125,-0.01328125,-0.958984375,0.019501541741897603,0.7666340168303724,12.484663680304369,0.47710821128565034,1509,0,5.837512550699174,3.0809795874731742,52.77931617511327,0.2488286447212891,0.13132960121973358,0.5026987911221719,-0.2968421722373528,-0.4359268548454522,0.1361328125,0.4602490543575729,0.2,0,1,1,0,0,0,0,,
71.60834369150002,1300,,,,-0.062890625,-0.01171875,-0.9625,0.0196504684096393,0.762444432137715,12.484771499410769,0.4767196756131623,1509,0,5.8404363851979,3.105344912432539,53.17008140329985,0.2455291028242708,0.13054636948118092,0.5017918451038194,-0.29699812671369274,-0.435531260533626,0.1376953125,0.4614843457310204,0,0,1,1,0,0,0,0,,
71.85972369150002,1300,,,,-0.0755859375,-0.01328125,-0.9564453125,0.019495709628228497,0.7674249871519293,12.484256427662723,0.4783085513828856,1508,0,5.873045625119248,3.0796441906255416,52.437524850333546,0.24922218131561696,0.13066974980094861,0.5025642782964277,-0.2966896301972018,-0.43600154085444476,0.1404296875,0.4627653130032211,0,0,1,1,0,0,0,0,,
72.1100386915,1300,,,,-0.065625,-0.01484375,-0.96015625,0.019266066118927137,0.7704353265158472,12.484385259103421,0.4774401993168785,1508,0,5.849778022125363,3.041899504231652,52.00107905924701,0.2533035993302517,0.13170419778001588,0.5034288112819146,-0.29598927954748655,-0.4362857869591051,0.1390625,0.4638798536706811,0.1,0,1,1,0,0,0,0,,
72.35778869150002,1300,,,,-0.0673828125,-0.021484375,-0.961328125,0.01966783273863825,0.7678989355313001,12.484515264076267,0.47715559769824833,1507,0,5.835228098354515,3.104659955692793,53.20612308623875,0.2473412744021705,0.13159948056653717,0.5012363995728106,-0.2966290163214821,-0.43604629261308725,0.1373046875,0.4648771421759168,0,0,1,1,0,0,0,0,,
72.61066969149996,1300,,,,-0.06796875,-0.0150390625,-0.9640625,0.01963672729783248,0.7672540846916691,12.484852794037467,0.47491665419007517,1506,0,5.809078153348674,3.09766801172825,53.325060271143414,0.24768810814074813,0.13207979593452068,0.5010125714643644,-0.2962405339898626,-0.43598540368426786,0.1357421875,0.46560435348657603,0,0,1,1,0,0,0,0,,
72.85744469149998,1300,,,,-0.073046875,-0.0087890625,-0.958203125,0.019685118457017668,0.7666810824636426,12.484073163160653,0.47841521247866137,1507,0,5.861900404419696,3.105995754554633,52.98664617227589,0.24684167451363456,0.13079217985041783,0.5010307214853387,-0.29656064156402356,-0.4359312989367332,0.1328125,0.4665923754385061,0,0,1,1,0,0,0,0,,
73.11142419149999,1300,,,,-0.066796875,-0.0291015625,-0.9525390625,0.019794182821838972,0.7635901948090994,12.484119886019416,0.480562284091545,1506,0,5.890627890531054,3.1219820426409006,52.99974350117461,0.24459692894765053,0.12962903274029786,0.5005338896002793,-0.2968189858449307,-0.4356394471985946,0.1330078125,0.46767063687590227,0,0,1,1,0,0,0,0,,
73.35941319150001,1300,,,,-0.0705078125,-0.0115234375,-0.955859375,0.019505647795756503,0.7662270714758482,12.484430968526118,0.47922549373824064,1507,0,5.860927952584933,3.078895483603176,52.53337529217568,0.24886446583740635,0.13073749912605287,0.5023491819498411,-0.29656691350483555,-0.43588842973191866,0.1349609375,0.46856498847530165,0,0,1,1,0,0,0,0,,
73.60851969149999,1300,,,,-0.0708984375,-0.0068359375,-0.9595703125,0.01954044951176592,0.7657238641914254,12.484681091807493,0.47659157333127455,1506,0,5.8407073149586655,3.0825813567861613,52.77754076449219,0.2484075992844315,0.1311027407721289,0.5020335310293621,-0.2965140371485811,-0.4358409152516084,0.134765625,0.4690893017323523,0.1,0,1,1,0,0,0,0,,
73.85711369149996,1300,,,,-0.06171875,-0.028125,-0.959375,0.019560870439240995,0.7648094333316633,12.484974785819048,0.47900477822913706,1506,0,5.885240544889226,3.085642620905813,52.43031245778815,0.24786180515627024,0.1299543635405126,0.501894213895132,-0.29652254111616133,-0.4357545716941398,0.1376953125,0.4698755523275949,0,0,1,1,0,0,0,0,,
74.1102391915,1300,,,,-0.06953125,-0.0029296875,-0.953515625,0.019540025222162066,0.7600089382365175,12.485080841809024,0.4791344211582779,1506,0,5.878197933158384,3.0822860735982998,52.43607967108128,0.24657339205767703,0.12929315176011416,0.5021785092194088,-0.29663622710813875,-0.43530129322075856,0.1380859375,0.4705973872935575,0.1,0,1,1,0,0,0,0,,
74.35875869149996,1300,,,,-0.069921875,-0.025390625,-0.9517578125,0.01969123676160371,0.7625529547743997,12.485049407185292,0.479082579099383,1506,0,5.879540858810529,3.104691707605521,52.805409181727796,0.24561258139402886,0.12969706886844776,0.5010377290654314,-0.2966051729560644,-0.4355415075965037,0.13828125,0.4712207273939971,0,0,1,1,0,0,0,0,,
74.61299619150006,1300,,,,-0.0697265625,-0.0091796875,-0.9599609375,0.019559413896573136,0.7707776228766234,12.485321069988052,0.47569590554153846,1506,0,5.825319819917824,3.0842109130217152,52.945435938475,0.24991360446512811,0.1323166582042483,0.5024850976092183,-0.2970222634197337,-0.43631810770285784,0.1396484375,0.47151000817751215,0.2,0,1,1,0,0,0,0,,
74.85854069150001,1300,,,,-0.0625,-0.0130859375,-0.9595703125,0.019604362011098806,0.769760435356662,12.485132835231408,0.47812505252531434,1507,0,5.857985376244119,3.0931362021617312,52.80200734901079,0.24886787084108178,0.13140439805290458,0.501961945097628,-0.2968545213884658,-0.43622206152490073,0.140625,0.47202941004745824,0,0,1,1,0,0,0,0,,
75.11054619149999,1300,,,,-0.069921875,-0.0357421875,-0.954296875,0.019729385108835172,0.7708096218252426,12.484950996165233,0.47959798508646445,1507,0,5.896366946219883,3.1126803441718396,52.789912830759114,0.24764872121366632,0.13072822468185466,0.5012095427858118,-0.2969931727607807,-0.4363211291484155,0.1419921875,0.47266895302410195,0.1,0,1,1,0,0,0,0,,
75.3585146915,1300,,,,-0.06640625,-0.015234375,-0.958984375,0.01947171206061426,0.7709445529576644,12.484909214234097,0.48146654268557676,1507,0,5.903343298768009,3.072703632197049,52.05060184356785,0.2509023575783571,0.13059546644366857,0.5030454236751327,-0.2969530148536427,-0.43633386978797517,0.1416015625,0.4733092474561845,0,0,1,1,0,0,0,0,,
75.60907519150001,1300,,,,-0.0716796875,-0.0052734375,-0.9580078125,0.01939404595170797,0.7687110866746244,12.485158394029083,0.4792196034760246,1507,0,5.87980931077985,3.0601179210370977,52.04494114012109,0.2512030728735654,0.13073813423239214,0.5034435286577844,-0.29680720120626186,-0.4361229785846598,0.1392578125,0.47374521986457896,0.1,0,1,1,0,0,0,0,,
75.86212219150005,1300,,,,-0.0634765625,-0.02421875,-0.965625,0.019484033745802633,0.7674755823171757,12.484995298673127,0.4798114020961751,1507,0,5.874611270473509,3.0747643873243655,52.34029843531808,0.24960622315871248,0.13064355173729106,0.5031091425105709,-0.2970854192356907,-0.43600631821569785,0.1408203125,0.4741847943258314,0.1,0,1,1,0,0,0,0,,
76.1107161915,1300,,,,-0.0650390625,-0.0181640625,-0.9591796875,0.019643360702003003,0.7637203469951961,12.484907469512628,0.4784579459145686,1507,0,5.844653081860281,3.0999918113816394,53.04022945181415,0.24636451381710414,0.1306720029824971,0.5017441112381601,-0.2969122953138662,-0.43565173659438655,0.1431640625,0.4744905175087921,0,0,1,1,0,0,0,0,,
76.35892119149993,1300,,,,-0.0732421875,-0.005859375,-0.955859375,0.019742403332038437,0.7618285807490455,12.48462543459643,0.4790614455645854,1507,0,5.858726195218834,3.1151971986519618,53.17206134453355,0.24455240649388782,0.13003341850339095,0.5010272634396928,-0.29691809870732316,-0.43547310982796905,0.1462890625,0.47487554372335444,0.1,0,1,1,0,0,0,0,,
76.61095219150005,1300,,,,-0.0671875,-0.0236328125,-0.9615234375,0.019712092801738544,0.7676602759601775,12.484795815790635,0.47752006822079984,1506,0,5.838383878744074,3.1091774061948136,53.25436433724832,0.2469015644214989,0.13148595747416122,0.5010092297344447,-0.2967118542720556,-0.4360237575945294,0.1505859375,0.4750452825807372,0.1,0,1,1,0,0,0,0,,
76.86032069150002,1300,,,,-0.0671875,-0.0201171875,-0.9599609375,0.019923190450619615,0.770006251180676,12.484664192742427,0.4806253626634135,1507,0,5.883747900559411,3.1434404504500617,53.42569021858149,0.24496366054652524,0.13087132199490242,0.49982376686224794,-0.2970191202505221,-0.43624527226030063,0.1498046875,0.4754837986779057,0,0,1,1,0,0,0,0,,
77.10878369150002,1000,,,,-0.062890625,-0.032421875,-0.956640625,0.01935697129679481,0.7717916851058086,12.489724326417845,0.3342499612464293,1377,0,4.038895422755937,2.797580983240576,76.23001835207428,0.2826085234433004,0.21416249507148355,0.5000448495239309,-0.2936468834219753,-0.4364138587806212,0.1515625,0.4653751559724529,0,0,1,1,0,0,0,0,,
77.36015519149998,1000,,,,-0.0591796875,-0.0375,-0.962109375,0.004753103405821093,0.7083685946330297,12.498174735895173,0.11881022540094062,1228,0,1.3575393511484644,0.625049027575915,43.406257976389085,0.48833214609654596,0.5428008911791772,0.5486064076717767,-0.243582307195928,-0.43042524280313854,0.1580078125,0.435047858440803,0.1,0,1,1,0,0,0,0,,
77.61000069150002,1000,,,,-0.0576171875,-0.015234375,-0.965234375,-0.00008601674868942863,0.5304643548653236,12.499616304433953,0.07128300063823749,1033,0,0.7706906448415947,0.04648052174916732,6.04773811442932,0,0.687882567424547,0.5657349381459644,-0.22788626362481876,-0.41362694166718156,0.1623046875,0.4066196681927713,0,0,1,1,0,0,0,0,,
77.85923719149997,1000,,,,-0.0560546875,-0.0119140625,-0.962109375,-0.0014174156509464964,0.36520764251560917,12.500552039879386,0.0595446829766982,878,0,0.6161411601934327,0.12954257301563027,21.110914580822506,0,0.5919540752172529,0.5717572463253588,-0.22469572079080713,-0.3980228615035303,0.1486328125,0.3803236090847507,0,0,1,1,0,0,0,0,,
78.1097136915,1000,,,,-0.0490234375,-0.019921875,-0.9546875,-0.0018041878385805655,0.25442879714302274,12.500842352492175,0.05488946902978007,740,0,0.5591151456179875,0.1396186082544308,24.99904604099074,0,0.4542952572484524,0.5732286658018525,-0.2235293884766088,-0.3875627600102093,0.15234375,0.3556036383523684,0,0,1,1,0,0,0,0,,
78.35944119149997,1000,,,,-0.0537109375,-0.03046875,-0.9552734375,-0.002168332167908299,0.18568955451199692,12.500549281744693,0.05080069041989751,637,0,0.5154444536681334,0.14396138100551964,27.918412769170715,0.1897945075217114,0.3616062170542027,0.5734253432345937,-0.22140758398456345,-0.38107217553014683,0.16328125,0.3325288626375208,0,0,1,1,0,0,0,0,,
78.60972919150001,1000,,,,-0.067578125,-0.0103515625,-0.9630859375,-0.0027960769801397578,0.12363328224268832,12.50031131105482,0.05339172081164197,543,0,0.5531331369044643,0.1588770884852469,28.777387577912982,0.776087779561954,0.22469613961813453,0.5761978264936845,-0.21984557191130416,-0.3752126190051536,0.151953125,0.31145333780514556,0,0,1,1,0,0,0,0,,
78.85741669149995,1000,,,,-0.059375,-0.0158203125,-0.9568359375,-0.002829927679947928,0.08496836254337409,12.500079176098557,0.05757487479528948,470,0,0.584378292708001,0.13937498213324817,23.890986438383642,0.6080495819592835,0.14497176837551803,0.5762532386087754,-0.21968030654991727,-0.37156175062025876,0.1458984375,0.29254079841790726,0.1,0,1,1,0,0,0,0,,
79.10769169149998,1000,,,,-0.064453125,-0.016015625,-0.96015625,-0.002718974125942542,0.05430799562903348,12.500680412332073,0.05251712530654355,462,0,0.5160854336561108,0.13150056851261777,25.528924503795842,0.4116499750628152,0.10595047283907545,0.5755926652670507,-0.21980951850082042,-0.3686666983323621,0.1486328125,0.27427270264352993,0.1,0,1,1,0,0,0,0,,
79.36018569150002,1000,,,,-0.0650390625,-0.0185546875,-0.957421875,-0.0024610212104111432,0.031466358340985726,12.50067808430847,0.05113290405890079,116,0,0.500915413085044,0.030486669182073572,6.296489493832419,0.10938078619902594,0.02069782749479748,0.5747888532137124,-0.22074028607698426,-0.36650991611006123,0.1408203125,0.2572856936835629,0.1,0,1,1,0,0,0,0,,
79.61021419149999,1000,,,,-0.0724609375,-0.0044921875,-0.958203125,-0.0023373335647312726,0.015436752472117307,12.500770606000003,0.05034034533422066,0,0,0.506068255555204,0,0,0,0,0.5747368554449965,-0.22147374428743039,-0.3649963482106816,0.1287109375,0.24163085142367127,0,0,1,1,0,0,0,0,,
79.86071869150001,1000,,,,-0.064453125,-0.008984375,-0.961328125,-0.0022598265637530472,0.0025850373680526063,12.500273357634414,0.05264856453516609,0,0,0.5243229168157638,0,0,0,0,0.5742409654137652,-0.22153434140342315,-0.3637828471681348,0.1201171875,0.22735582385807476,0,0,1,1,0,0,0,0,,
80.10859019149997,1000,,,,-0.0619140625,-0.0189453125,-0.966015625,-0.0021769730951191205,-0.000004623438981482015,12.500434073902223,0.049508694881013546,0,0,0.47882104351180266,0,0,0,0,0.5749171944824469,-0.2226380426421469,-0.36353832291096505,0.109765625,0.21404120189955336,0,0,1,1,0,0,0,0,,
80.36165069150005,1000,,,,-0.0638671875,-0.0234375,-0.9625,-0.002291360925602593,-0.0067790557902216025,12.500960342387149,0.04931214691671208,0,0,0.47706798442522436,0,0,0,0,0.5766868901847535,-0.2234424318548811,-0.3628986588152138,0.098046875,0.20139078045520495,0,0,1,1,0,0,0,0,,
80.6092206915,1000,,,,-0.0625,-0.0328125,-0.9556640625,-0.0016673490173555693,-0.01398828743910214,12.501163110687873,0.04917391007498991,0,0,0.47934297826362027,0,0,0,0,0.5741181877550176,-0.22515645875362583,-0.36221793954537024,0.087890625,0.19004194441342404,0,0,1,1,0,0,0,0,,
80.86063869149999,1000,,,,-0.0625,-0.0373046875,-0.9505859375,0.0016988140170348148,-0.01928762052380756,12.500379971795482,0.049105011781266195,0,0,0.4913146847848269,0,0,0,0,0.5550808263540719,-0.2299407421999044,-0.3617175591548138,0.0783203125,0.17928304515169438,0.2,0,1,1,0,0,0,0,,
81.11219819150001,1000,,,,-0.0625,-0.0380859375,-0.950390625,0.0034064365435135086,-0.013674095642567058,12.500637358862672,0.05203597557959845,0,0,0.531845420481257,0,0,0,0,0.5486668391590809,-0.23516115098064683,-0.3622476065640964,0.071875,0.1696958102083192,0,0,1,1,0,0,0,0,,
81.36167869149995,1000,,,,-0.0625,-0.0380859375,-0.950390625,0.0025822667901821837,-0.009796900251935014,12.500437793618286,0.04931286402782744,0,0,0.4866268270175255,0,0,0,0,0.5557367592681631,-0.23606431898786656,-0.3626137040546329,0.0673828125,0.1606012339488478,0.1,0,1,1,0,0,0,0,,
81.60978319149997,1000,,,,-0.0625,-0.03828125,-0.95078125,0.002217064840462052,-0.010351619114254362,12.500601538961558,0.04502246155792065,0,0,0.42917076655245434,0,0,0,0,0.5586164322313649,-0.2362465364845598,-0.36256132568238497,0.064453125,0.1518741673945678,0,0,1,1,0,0,0,0,,
81.86004119150004,1000,,,,-0.0625,-0.0380859375,-0.950390625,0.002011267258913145,-0.004416557758181394,12.501097252030494,0.0453776031296337,0,0,0.43586440366277035,0,0,0,0,0.5604615037933833,-0.2365406932858949,-0.3631217336189799,0.0625,0.14380548404611176,0,0,1,1,0,0,0,0,,
82.1101906915,1000,,,,-0.0625,-0.037890625,-0.9505859375,0.0019296545597962671,-0.001971485956447116,12.501051282074002,0.04606001891241907,0,0,0.4526911780304689,0,0,0,0,0.5609555934154604,-0.23645271263073364,-0.36335260530859326,0.060546875,0.13642761862834957,0,0,1,1,0,0,0,0,,
82.36200719150007,1000,,,,-0.0625,-0.0380859375,-0.9509765625,0.0019751837728049287,-0.008344802999957717,12.500771052222609,0.04161829469912302,0,0,0.4027254613789643,0,0,0,0,0.560879922065274,-0.2366740111062749,-0.36275081583425817,0.060546875,0.1291715161364531,0,0,1,1,0,0,0,0,,
82.60995769149997,1000,,,,-0.0625,-0.0380859375,-0.9505859375,0.0019819287022570854,-0.018227994362541047,12.500848376716275,0.042122204249843,0,0,0.4098688210862601,0,0,0,0,0.5607796424319982,-0.23663008623198828,-0.36181761252831246,0.05859375,0.12265320898967831,0.1,0,1,1,0,0,0,0,,
82.86125669149999,1000,,,,-0.0625,-0.038671875,-0.9505859375,0.0019837273499068915,-0.01785884947251855,12.501038344195704,0.04626386585921943,0,0,0.46330961673302334,0,0,0,0,0.5606489087271985,-0.2365288114859382,-0.3618524683981528,0.05859375,0.11687052763573873,0.1,0,1,1,0,0,0,0,,
83.1095966915,1000,,,,-0.0625,-0.0380859375,-0.95078125,0.001937258124711333,-0.0195750008896682,12.501055476222273,0.047935063969362264,0,0,0.46450381926076256,0,0,0,0,0.560793350133354,-0.23636082531440059,-0.36169042375920657,0.05859375,0.11178005856409554,0,0,1,1,0,0,0,0,,
83.35959219150003,1000,,,,-0.0625,-0.0380859375,-0.9515625,0.0019263555474582767,-0.02079772225696944,12.500463977893807,0.04820230089466609,0,0,0.4694913246514051,0,0,0,0,0.5612017567992702,-0.23664395862571147,-0.3615749704020515,0.05859375,0.10696066452927981,0.1,0,1,1,0,0,0,0,,
83.6089436915,1000,,,,-0.0625,-0.03828125,-0.9505859375,0.0018879498488290542,-0.013903950716980489,12.501129212015723,0.04311003144365809,0,0,0.3999136752612793,0,0,0,0,0.5613072736194814,-0.23649318498091146,-0.36222590289496137,0.05859375,0.10208197042241211,0,0,1,1,0,0,0,0,,
83.8608781915,1000,,,,-0.0625,-0.037890625,-0.9501953125,0.0018968897454225756,-0.0025900880110692336,12.501394921732782,0.043583500113085115,0,0,0.3944087480640994,0,0,0,0,0.5614093419539918,-0.23663733895809683,-0.36329419487604586,0.05859375,0.09762425189490191,0,0,1,1,0,0,0,0,,
84.1089666915,1000,,,,-0.0625,-0.037890625,-0.9509765625,0.0019258915189934174,0.0008920734282399299,12.501287444440901,0.044093185194999926,0,0,0.4095723632267455,0,0,0,0,0.5612331105839148,-0.23666804179082349,-0.36362299196676107,0.05859375,0.09358657264215156,0,0,1,1,0,0,0,0,,
84.35800269149999,1000,,,,-0.0625,-0.0388671875,-0.951171875,0.0020155806617949356,-0.006916613241078339,12.500706703613163,0.04607540942944179,0,0,0.44517420857606743,0,0,0,0,0.5605672054612879,-0.23665886659097576,-0.36288567019006357,0.05859375,0.09007809702474187,0.1,0,1,1,0,0,0,0,,
84.60909669150006,1000,,,,-0.0625,-0.0384765625,-0.95078125,0.002046486656648199,-0.008551811061801712,12.501115895141528,0.04368229980118577,0,0,0.4109337690152731,0,0,0,0,0.5605079764184268,-0.2368023166731274,-0.3627312694548971,0.05859375,0.08653172851722483,0,0,1,1,0,0,0,0,,
84.86062719149997,1000,,,,-0.0625,-0.03828125,-0.9501953125,0.00210869927482376,-0.0075869904439263445,12.500976388132479,0.0415828521372522,0,0,0.3846315243126714,0,0,0,0,0.5603518215841153,-0.23705927200929366,-0.3628223709784045,0.05859375,0.08309176000249044,0.1,0,1,1,0,0,0,0,,
85.10989969149993,1000,,,,-0.0625,-0.03828125,-0.9505859375,0.002068265884130368,-0.0070574266454246845,12.500958402454781,0.03906262848629322,0,0,0.3676115650962093,0,0,0,0,0.5603602045383145,-0.23681208555619673,-0.36287237412711837,0.05859375,0.0797675742359715,0,0,1,1,0,0,0,0,,
85.3604386915,1000,,,,-0.0625,-0.03828125,-0.95,0.0020637317658912246,-0.01592424178188226,12.501118980804232,0.04122180793252673,0,0,0.3945083330055684,0,0,0,0,0.5604188893260936,-0.2368340980784649,-0.36203514039410806,0.05859375,0.07683526245348889,0,0,1,1,0,0,0,0,,
85.61009069150003,1000,,,,-0.0625,-0.0380859375,-0.951171875,0.0019115609223063351,-0.009408716192703824,12.500479887814185,0.04265776112532725,0,0,0.4030703569112236,0,0,0,0,0.5612621545353049,-0.23660288748121444,-0.3626503576652026,0.05859375,0.07427801052112061,0,0,1,1,0,0,0,0,,
85.85980219150001,1000,,,,-0.0625,-0.0380859375,-0.9505859375,0.001884726295808856,-0.0006903596703263028,12.50087051545349,0.043854171701692014,0,0,0.4119704627240683,0,0,0,0,0.5612169697178209,-0.23639513000970225,-0.36347357344951875,0.05859375,0.07203171368654723,0,0,1,1,0,0,0,0,,
86.10927569150005,1000,,,,-0.0625,-0.0376953125,-0.9509765625,0.0018949520920609226,0.003162401287265938,12.501009128731898,0.04093389603346972,0,0,0.38017995088053236,0,0,0,0,0.5609565415426219,-0.23623518193625706,-0.3638373637608402,0.05859375,0.0696364085585739,0.1,0,1,1,0,0,0,0,,
86.3614441915,1000,,,,-0.0625,-0.0376953125,-0.95078125,0.001952295980317488,0.005566242669782503,12.501220340458897,0.04373200073006683,0,0,0.4238572553336565,0,0,0,0,0.5608576291591172,-0.23651080224050997,-0.3640643423391997,0.05859375,0.06766346585782915,0.1,0,1,1,0,0,0,0,,
86.60734069150004,1000,,,,-0.0625,-0.0376953125,-0.95,0.0019185121907302756,-0.0034803796234016597,12.50131480135878,0.04790350848859697,0,0,0.4645239697926325,0,0,0,0,0.5613012430246473,-0.23668028891023712,-0.3632101306254,0.05859375,0.06626749594548763,0,0,1,1,0,0,0,0,,
86.8604556915,1000,,,,-0.0625,-0.0380859375,-0.9501953125,0.001900656001160465,-0.012515414057777941,12.501153798593952,0.04274421834265725,0,0,0.39435386900068536,0,0,0,0,0.5615621741686452,-0.236792659869626,-0.3623570130751912,0.05859375,0.06442068015479668,0,0,1,1,0,0,0,0,,
87.10886619150003,1000,,,,-0.0625,-0.0376953125,-0.95078125,0.00193567561058638,-0.002168507697373636,12.501296287136132,0.043087204289286904,0,0,0.38636107621765553,0,0,0,0,0.5610946849461547,-0.23661038677809834,-0.3633340018703687,0.05859375,0.0628274761804627,0.1,0,1,1,0,0,0,0,,
87.35811119149999,1000,,,,-0.0625,-0.0376953125,-0.9501953125,0.0019465277182325713,-0.000692497459610196,12.501386915999754,0.042607738406567605,0,0,0.3970320489478507,0,0,0,0,0.5609302520260018,-0.2365370534470686,-0.3634733715924511,0.05859375,0.06128842392672178,0.2,0,1,1,0,0,0,0,,
87.60973419149998,1000,,,,-0.0625,-0.0373046875,-0.950390625,0.0019135688432434495,-0.005786993515350624,12.50060359889134,0.04557073545056465,0,0,0.44319108401458907,0,0,0,0,0.5609207431632235,-0.2363214875296255,-0.3629923325852188,0.05859375,0.06013658690868954,0.1,0,1,1,0,0,0,0,,
87.85955869149998,1000,,,,-0.0625,-0.0376953125,-0.9505859375,0.001881764267387203,-0.004633146439730306,12.500870682164644,0.04519834072725172,0,0,0.4169735565927602,0,0,0,0,0.5611090117785593,-0.23628351635755437,-0.3631012826061201,0.05859375,0.05898802907166745,0,0,1,1,0,0,0,0,,
88.10928919150003,1000,,,,-0.0625,-0.037109375,-0.9505859375,0.0018941628304464948,-0.003265010384263039,12.500960894528848,0.0463652192767519,0,0,0.43820386112591947,0,0,0,0,0.5611736119515329,-0.23641716348808237,-0.3632304664945126,0.05859375,0.05806655197177034,0,0,1,1,0,0,0,0,,
88.3595831915,1000,,,,-0.0625,-0.0376953125,-0.9513671875,0.001928776301332425,-0.0077180857099683475,12.50131954499084,0.04178825079447644,0,0,0.3841621473949212,0,0,0,0,0.5608803781916691,-0.23638240903071636,-0.36280999253391466,0.05859375,0.05679010317135615,0.1,0,1,1,0,0,0,0,,
88.6092201915,1000,,,,-0.0625,-0.0375,-0.95,0.0020262268557566685,-0.01044919022002715,12.50105926039312,0.0404475691893992,0,0,0.3708671451949068,0,0,0,0,0.5605196475927244,-0.2366848939677159,-0.36255211269893356,0.05859375,0.055519989824355874,0.1,0,1,1,0,0,0,0,,
88.85794419149998,1000,,,,-0.0625,-0.037890625,-0.9501953125,0.0019835033184772395,-0.012149312095964173,12.501236885992455,0.04346536392128174,0,0,0.40494203032754117,0,0,0,0,0.5607542445361592,-0.23661812025409706,-0.3623915816217815,0.05859375,0.054645835557612744,0,0,1,1,0,0,0,0,,
89.10882469150002,1000,,,,-0.0625,-0.0384765625,-0.9509765625,0.001966272013132527,-0.01095074461012237,12.501080986440451,0.04452076997297257,0,0,0.41251605590911433,0,0,0,0,0.5609087136825784,-0.23664273469575878,-0.36250475429032064,0.05859375,0.05389174101442466,0,0,1,1,0,0,0,0,,
89.35872619149998,1000,,,,-0.0625,-0.037109375,-0.951171875,0.0018611612136133434,-0.006432509577035181,12.501351331248312,0.0434801409538484,0,0,0.4055893448062841,0,0,0,0,0.5610812583852692,-0.23612998028731907,-0.36293138084395377,0.05859375,0.05311003734946401,0,0,1,1,0,0,0,0,,
89.60955569149999,1000,,,,-0.0625,-0.0380859375,-0.9505859375,0.0018135098351771586,-0.007049499506327744,12.500546606294872,0.04578834243360003,0,0,0.42956021354570845,0,0,0,0,0.561357947546371,-0.2360684517781925,-0.3628731226335613,0.05859375,0.052569537619090424,0,0,1,1,0,0,0,0,,
89.85955969149998,1000,,,,-0.0625,-0.0380859375,-0.951171875,0.0018774965195409287,-0.005900759251475345,12.500065537003872,0.04576963329362982,0,0,0.43120212121531676,0,0,0,0,0.5612884454027601,-0.2364111974099036,-0.36298159045171563,0.05859375,0.05203126157939174,0,0,1,1,0,0,0,0,,
90.10843619149998,1000,,,,-0.0625,-0.03828125,-0.95078125,0.0019517555843829575,-0.0025729912821448,12.500560449298442,0.047174044301279014,0,0,0.4494217615528269,0,0,0,0,0.5608025547296658,-0.2364599703233104,-0.36329580920520005,0.05859375,0.05173667445761946,0,0,1,1,0,0,0,0,,
90.35947819150005,1000,,,,-0.0625,-0.0376953125,-0.9509765625,0.0020211246771188024,-0.002630432939599151,12.500859190952923,0.043221009769100406,0,0,0.38157989994845204,0,0,0,0,0.5606552410021683,-0.23676956828515242,-0.36329038537572345,0.05859375,0.051004682093377475,0,0,1,1,0,0,0,0,,
90.6125756915,1000,,,,-0.0625,-0.03828125,-0.9501953125,0.0019972740622341044,-0.003934428795831957,12.501243801800468,0.04110087039129591,0,0,0.3642657691462915,0,0,0,0,0.56075970944724,-0.23670947205115103,-0.363167257815067,0.05859375,0.05023392306820161,0,0,1,1,0,0,0,0,,
90.88304969149998,1000,,,,-0.0625,-0.0373046875,-0.95078125,0.0019235010882478636,-0.00428117996183574,12.501145550529564,0.04272896295860294,0,0,0.3980988053330545,0,0,0,0,0.5610831725889386,-0.2365238701324201,-0.3631345164340107,0.05859375,0.0496181161643476,0.2,0,1,1,0,0,0,0,,
91.1351686915,1000,,,,-0.0625,-0.037890625,-0.9513671875,0.0019310296617167945,-0.009454214539680844,12.501280283572365,0.04603795094769286,0,0,0.438773010355861,0,0,0,0,0.5612704119795486,-0.23673249596940496,-0.3626460615622277,0.05859375,0.04939089765206665,0,0,1,1,0,0,0,0,,
91.3838871915,1000,,,,-0.0625,-0.037890625,-0.9501953125,0.0018618810608114933,-0.017612870709032624,12.5007759630618,0.041603192331078,0,0,0.38351441960008403,0,0,0,0,0.5613480123945296,-0.23636424613457815,-0.3618756945188315,0.05859375,0.04877517352242304,0.1,0,1,1,0,0,0,0,,
91.63356069150002,1000,,,,-0.0625,-0.0376953125,-0.9513671875,0.0018721115640004849,-0.016110173003841346,12.500712846627772,0.04046164789324151,0,0,0.3741207934848483,0,0,0,0,0.56118116494533,-0.23628492221532968,-0.3620175841590171,0.05859375,0.04811671143442099,0.1,0,1,1,0,0,0,0,,
91.88577019150001,1040,,,,-0.0625,-0.03828125,-0.95,0.0019643988330724435,-0.013736923241296167,12.500927975633505,0.042393525920666905,0,0,0.39780521758436443,0,0,0,0,0.5607980001150052,-0.23653559882621086,-0.3622416741764002,0.05859375,0.04769836688785399,0,0,1,1,0,0,0,0,,
92.13527369149999,1400,,,,-0.05234375,0.002734375,-0.956640625,0.009902780825395438,-0.009643350936939788,12.473471603848887,0.6546420771628249,136,0,8.006009178583833,0.5842820357184615,4.425876550501182,3.191044708952467,0.0002619240661066564,0.5600938902616238,-0.2858773428848425,-0.3626282026839847,0.098046875,0.09255859055962452,0.1,0,1,1,0,0,0,0,,
92.38601519149998,1400,,,,-0.1046875,0.009765625,-0.9537109375,0.04904489974296645,0.1337318649667844,12.458600152118013,1.1736022843447298,1445,0,14.521120779132747,7.533632423415995,54.121400501905626,0.015288037787483432,0.010588937242050945,0.5139700283732309,-0.49243553335793006,-0.3761661602690788,0.1576171875,0.1905474539860682,0,0,1,1,0,0,0,0,,
