Time (s),ESC signal (µs),Servo 1 (µs),Servo 2 (µs),Servo 3 (µs),AccX (g),AccY (g),AccZ (g),Torque (N·m),Thrust (N),Voltage (V),Current (A),Motor Electrical Speed (RPM),Motor Optical Speed (RPM),Electrical Power (W),Mechanical Power (W),Motor Efficiency (%),Propeller Mech. Efficiency (N/W),Overall Efficiency (N/W),Left Load Cell (mV),Right Load Cell (mV),Thrust Load Cell (mV),Vibration (g),Burst Current Cutoff (A),Pin State 1,Pin State 2,Pin State 3,Pin State 4,Debug 0,Debug 1,Debug 2,Debug 3,App message,
0,1000,,,,-0.0625,-0.0384765625,-0.948828125,0.0009258535697211484,-0.017977962248191585,12.501255269193209,0.04602930793187306,0,0,0.44025060050710324,0,0,0,0,0.5651989117186925,-0.23379128983713002,-0.3618412213796586,0.05859375,0.043859665654407784,0.1,0,1,1,0,0,0,0,,
0.37631913849976845,1000,,,,-0.0625,-0.034765625,-0.95546875,0.0008779771241351059,-0.016849543621634384,12.501654424653209,0.04483751214669636,0,0,0.4148652577320198,0,0,0,0,0.565620363852562,-0.23385301943975684,-0.3619477703630952,0.05859375,0.0439052343463121,0.2,0,1,1,0,0,0,0,,
0.6264451384998858,1000,,,,-0.0625,-0.0310546875,-0.95859375,0.0006400218691592817,-0.011852576045439,12.501635101834687,0.047254862195788276,0,0,0.4541043600305342,0,0,0,0,0.5672303857080977,-0.23374240890431688,-0.362419600411784,0.0599609375,0.04417562928632647,0,0,1,1,0,0,0,0,,
0.8753981384998187,1000,,,,-0.0625,-0.0353515625,-0.9509765625,0.0006414371803505627,0.0011947001799668354,12.501241277164144,0.045469018934952414,0,0,0.43159505004503096,0,0,0,0,0.5677199553522856,-0.23417294612955614,-0.3636515669760691,0.060546875,0.04429662658689796,0.1,0,1,1,0,0,0,0,,
1.1267136384998915,1000,,,,-0.0625,-0.0380859375,-0.95078125,0.0008404783768051428,-0.02444839220814784,12.500839770003415,0.04435769243112213,0,0,0.4310824253249025,0,0,0,0,0.5660569672180065,-0.23399309401411852,-0.36123026218560894,0.0603515625,0.04423445035279273,0,0,1,1,0,0,0,0,,
1.377234638499934,1000,,,,-0.0625,-0.037890625,-0.95234375,0.0010095353551666938,-0.018421773251301163,12.50061090399692,0.042188636830793415,0,0,0.3920138646931221,0,0,0,0,0.5646207249453435,-0.23381986214490702,-0.361799315290813,0.05859375,0.04409820808251255,0,0,1,1,0,0,0,0,,
1.6252756384998093,1000,,,,-0.0625,-0.037890625,-0.951171875,0.0009244280883565409,-0.02254899894979548,12.500745247222728,0.04308552091461289,0,0,0.4018476788455786,0,0,0,0,0.5649111734137183,-0.23353451184631072,-0.361409609119505,0.05859375,0.04402669913492917,0,0,1,1,0,0,0,0,,
1.8788971384999342,1010,,,,-0.0625,-0.0375,-0.9501953125,0.0008637614288459598,-0.025959522454369065,12.50023238346694,0.04287928140723298,0,0,0.38442849367825505,0,0,0,0,0.5654882530172084,-0.23364979673400188,-0.3610875763172743,0.05859375,0.0439304090287887,0,0,1,1,0,0,0,0,,
2.1282361384997612,1100,,,,-0.06015625,-0.0294921875,-0.955859375,0.0030740016185191064,-0.0011990672076292008,12.494005940763863,0.19284945731421838,0,0,2.2572619418544413,0.00001151502056540076,0.0004038596102525145,0,0.00031304225682778086,0.5644258465709503,-0.2466416084847442,-0.3634255396173128,0.071484375,0.05538976363885382,0.1,0,1,1,0,0,0,0,,
2.375780138500035,1100,,,,-0.0703125,-0.01640625,-0.96015625,0.01821196895605937,0.012865061238551348,12.492841632441777,0.21968138456198494,263,0,2.6037736049744185,0.5035625052397884,20.286613932066388,0.02245081094002926,0.005022701946205714,0.5223734297121141,-0.3056725964304406,-0.3647535206995073,0.09921875,0.06956058402659894,0,0,1,1,0,0,0,0,,
2.625857638499839,1100,,,,-0.0685546875,-0.0177734375,-0.9572265625,0.014521840793626848,0.04511151170601502,12.494837116595251,0.18131332587207832,541,0,2.1388605754951806,0.8179011724569305,38.18635560067449,0.05732912884154595,0.021423550409911712,0.5220934511737605,-0.282213256062043,-0.36779833619252456,0.104296875,0.0774093493060454,0,0,1,1,0,0,0,0,,
2.8790696384998973,1100,,,,-0.060546875,-0.0216796875,-0.951953125,0.010642119780679547,0.09393953467238157,12.495223583091853,0.17262781344390582,615,0,2.039450491595195,0.6840890010151304,33.54339291712622,0.1380572902956877,0.046073054370235046,0.531887427234042,-0.2662369941273984,-0.3724088380823809,0.1046875,0.08449127377447249,0.1,0,1,1,0,0,0,0,,
3.1275016384999734,1100,,,,-0.0458984375,-0.0431640625,-0.9482421875,0.008738135189969739,0.10752835551004077,12.494931261114163,0.17102073036373017,665,0,2.0208702305726822,0.6083066283312908,30.10360449581686,0.17723259971682245,0.05320808638453621,0.5373270221699495,-0.25894190312336585,-0.3736919390630636,0.1298828125,0.09097790287769292,0,0,1,1,0,0,0,0,,
3.375382138499851,1100,,,,-0.0623046875,-0.03046875,-0.949609375,0.007523250638816441,0.14369112377453105,12.494891876698986,0.1726474179303453,699,0,2.026769721761956,0.5502716070319699,27.153401192881056,0.2619154444895122,0.07088834392957188,0.5414753058714734,-0.2548705000208161,-0.37710654611239497,0.1619140625,0.09708956890022036,0,0,1,1,0,0,0,0,,
3.6272026384999045,1100,,,,-0.0736328125,-0.01953125,-0.959765625,0.006577749174562995,0.15679523187063168,12.494443830011807,0.17352738412265814,723,0,2.040196760318325,0.4977832715686401,24.398350897475886,0.3155111303882565,0.07685604863259449,0.5448411908123159,-0.2518202246819675,-0.37834387892809324,0.178125,0.10296228578524447,0.1,0,1,1,0,0,0,0,,
3.878041638499964,1100,,,,-0.0763671875,-0.013671875,-0.960546875,0.005548461688630788,0.15462449934977635,12.495106113057213,0.17298128777645733,740,0,2.0503914502446685,0.43002355849210927,20.973484665286552,0.3596912354692287,0.07542682286423892,0.5491958208565471,-0.24909430637564448,-0.3781389112521202,0.17265625,0.10824902050246914,0,0,1,1,0,0,0,0,,
4.130012138499877,1100,,,,-0.058203125,-0.0232421875,-0.959765625,0.005169679550821879,0.16373275073032303,12.495110131251137,0.171940054399135,752,0,2.0325681560785,0.4070595870495885,20.029972592468873,0.40245013015669534,0.08055387069660988,0.5503468271618518,-0.24770229783084757,-0.3789989421862463,0.1705078125,0.11305898436141282,0,0,1,1,0,0,0,0,,
4.376538638499891,1100,,,,-0.0625,-0.0162109375,-0.962890625,0.005073683791752549,0.16725116939251827,12.494765064571421,0.17467564627337473,761,0,2.0616569426087428,0.4041630360905752,19.604904116547182,0.4138298906766585,0.08112944037935109,0.5499034119344732,-0.2467164118454425,-0.37933116280272566,0.1681640625,0.11765922140750802,0,0,1,1,0,0,0,0,,
4.630391138499929,1100,,,,-0.069921875,-0.012890625,-0.9607421875,0.004924530366221346,0.18354573103317134,12.494389927595057,0.17765573951756256,767,0,2.079893287653568,0.3956456936320884,19.02249035213417,0.46457500007577324,0.08835449859499665,0.5503694501936709,-0.24617930757891798,-0.38086974869407664,0.1638671875,0.12238645166192438,0,0,1,1,0,0,0,0,,
4.879065138499951,1100,,,,-0.0638671875,-0.0154296875,-0.9626953125,0.0045088538668044045,0.19585312503273708,12.494784918859402,0.17405850790240407,772,0,2.0509757180455845,0.36459929127134677,17.78290221811584,0.5375011585036832,0.09551414050116831,0.5521845310020623,-0.24512708138283684,-0.3820318531547321,0.1611328125,0.1261599054041894,0,0,1,1,0,0,0,0,,
5.124680638499837,1100,,,,-0.047265625,-0.0392578125,-0.951953125,0.004455633508998408,0.1834048760454815,12.495270474563352,0.17423096586802195,776,0,2.0443852010573234,0.36191626488031003,17.705085518959542,0.5068132295067427,0.08972615970185055,0.5522218301554871,-0.24482434308329548,-0.3808564487046957,0.1546875,0.12972803596987054,0,0,1,1,0,0,0,0,,
5.378612638499867,1100,,,,-0.062109375,-0.029296875,-0.9607421875,0.004421083694317591,0.18321288913550288,12.49528100456057,0.1776969453290717,778,0,2.0863067151247527,0.36030945176231144,17.27252534452827,0.5086112207121744,0.08781353193780747,0.5521197362257442,-0.24451902995763417,-0.3808383206717034,0.15234375,0.13344034245564443,0.1,0,1,1,0,0,0,0,,
5.626346638499852,1100,,,,-0.100390625,0.014453125,-0.971875,0.004224908217587786,0.19239271669528485,12.495185728678782,0.1800886606853119,780,0,2.1135341849467206,0.34517998567854824,16.332928949606583,0.5575493948552711,0.09104032668228675,0.5532895787796206,-0.24429220130694337,-0.38170511006315755,0.1544921875,0.13698303809442736,0,0,1,1,0,0,0,0,,
5.878974638499832,1100,,,,-0.062109375,-0.02578125,-0.95234375,0.004145583572776232,0.1990579398627234,12.495422025656968,0.173024541515468,782,0,2.0301592377158384,0.3394172507791374,16.719823109907722,0.5865177617811241,0.09807018303336043,0.5541704052217854,-0.24455168643603561,-0.3823344622700032,0.15703125,0.1397052316564307,0.1,0,1,1,0,0,0,0,,
6.128508638499957,1100,,,,-0.0744140625,-0.0162109375,-0.9625,0.0039878532018213135,0.2001860031644915,12.495298870078734,0.16942216218526387,783,0,2.0023174947587203,0.32680407648079657,16.323317995942737,0.6127369779235143,0.09998617202117863,0.5548224504126771,-0.2441208109650385,-0.38244097770250934,0.1548828125,0.14184395853800838,0,0,1,1,0,0,0,0,,
6.375488638499892,1100,,,,-0.0904296875,0.0033203125,-0.9677734375,0.004132877168184811,0.18894630151472616,12.495122293541606,0.17232318280809875,783,0,2.037337732273403,0.33887241927750866,16.635405670153993,0.5586272184289754,0.09274033927945403,0.5531836068682886,-0.24362187753908424,-0.3813796882512989,0.1576171875,0.1441630140548125,0,0,1,1,0,0,0,0,,
6.629456638499815,1100,,,,-0.0640625,-0.009765625,-0.960546875,0.004502465332626896,0.18479187421932236,12.49539098677861,0.1739655261420171,783,0,2.0423125316777364,0.3693692055971796,18.086478017741864,0.5005140769479965,0.09048232161347304,0.5507131059389836,-0.24381964929254973,-0.3809874136160976,0.15625,0.14647173556070842,0,0,1,1,0,0,0,0,,
6.898290638499892,1100,,,,-0.06953125,-0.009765625,-0.960546875,0.004459886945244376,0.17755911549997033,12.495227966220899,0.1723735431122273,784,0,2.0252254362568385,0.36598102588174697,18.070999180895335,0.4851501529871357,0.08766580368979773,0.5505465139801264,-0.2434082728998214,-0.38030447284318497,0.1556640625,0.14858646917173066,0,0,1,1,0,0,0,0,,
7.152289638499869,1100,,,,-0.0787109375,-0.01484375,-0.96171875,0.004295401310784359,0.18144368157656987,12.495643086362488,0.1724769147062369,784,0,2.032494411479906,0.35273035608011527,17.35583263112135,0.514481796012949,0.08927301766901444,0.5517077670556134,-0.24337343860123703,-0.3806712662980371,0.157421875,0.15037225022460526,0,0,1,1,0,0,0,0,,
7.401642638499803,1100,,,,-0.0521484375,-0.0212890625,-0.9572265625,0.004221101019702527,0.20776296111231699,12.49558038912043,0.17322226669256263,784,0,2.040926392652522,0.3467734967300771,16.99137577845922,0.5992716133360843,0.1017956905522583,0.5529172031097612,-0.24394754535579816,-0.3831564188941764,0.1572265625,0.15211605203611497,0,0,1,1,0,0,0,0,,
7.651033138499921,1100,,,,-0.055078125,-0.0298828125,-0.9572265625,0.004175428060649414,0.2172264258726314,12.49545803083995,0.17190139362362114,784,0,2.0397141144193265,0.34296412590129316,16.81474687368574,0.6333705666282459,0.1065021456261363,0.5536138398327285,-0.24426013650457787,-0.384049990239305,0.1533203125,0.15359261352792222,0.1,0,1,1,0,0,0,0,,
7.901667638499849,1100,,,,-0.0716796875,-0.0130859375,-0.9609375,0.00395029563893746,0.22081293098603977,12.495371281453508,0.1733582031120378,785,0,2.037966636775049,0.3245589576028284,15.926190800594721,0.6806608928331024,0.10835116258459447,0.555136052315665,-0.24415458291096725,-0.38438863980156013,0.1537109375,0.1551030502095586,0,0,1,1,0,0,0,0,,
8.156020638499829,1100,,,,-0.076953125,-0.0060546875,-0.965234375,0.003924702858871523,0.20284245807040857,12.495374536077382,0.1732956545354458,784,0,2.0529875121988677,0.3223829695232588,15.703201424425917,0.6292708043268701,0.0988154042525568,0.5553588303399917,-0.24418541677869077,-0.382691808877314,0.151953125,0.15649726255255342,0.1,0,1,1,0,0,0,0,,
8.403004138499918,1100,,,,-0.068359375,-0.02890625,-0.953125,0.0039999362093545935,0.19605619333263166,12.495442848538296,0.171434670700571,785,0,2.0316947727262984,0.3287361419096255,16.181960070386744,0.5964323764066162,0.09650069619332821,0.5545195068504195,-0.24393593289759732,-0.382051027528863,0.15078125,0.15761542440365756,0,0,1,1,0,0,0,0,,
8.65114113849988,1100,,,,-0.0490234375,-0.022265625,-0.94921875,0.0040258281047569466,0.19214840794690674,12.496082666359985,0.17042239664415626,785,0,2.006395019468979,0.33085622324571207,16.491019154223153,0.5807669803991787,0.09577174925270437,0.5540005880429979,-0.24365193570076676,-0.3816820416307764,0.1517578125,0.15854677337328402,0.1,0,1,1,0,0,0,0,,
8.900023138499726,1100,,,,-0.10546875,-0.007421875,-0.9544921875,0.004043974011297837,0.19139543944522455,12.49591364044722,0.17238599026698626,785,0,2.0320503226397806,0.33241252810223326,16.360327342878374,0.5758020627245315,0.0942021597802334,0.553983154770464,-0.2437510953317005,-0.381610943878111,0.1537109375,0.15958267086677172,0.1,0,1,1,0,0,0,0,,
9.15274463849985,1100,,,,-0.0462890625,-0.0283203125,-0.955078125,0.004078712022482605,0.19270105331333798,12.494738663052397,0.17698175386107914,785,0,2.080078846735196,0.33520032750910406,16.115697629281325,0.574892856506066,0.09264865226464317,0.5540118607707079,-0.2439943886920514,-0.3817342242167499,0.1541015625,0.16102028198241605,0,0,1,1,0,0,0,0,,
9.403348638499946,1100,,,,-0.079296875,-0.0138671875,-0.949609375,0.003983328345764449,0.19344583623901238,12.495225336328946,0.1762228114144861,785,0,2.0731912873937146,0.3273363140206481,15.790274946687353,0.5910091993873775,0.09331560004761562,0.5545154792950415,-0.243827967891889,-0.38180454906051253,0.1541015625,0.16216514125639891,0,0,1,1,0,0,0,0,,
9.652944138499908,1100,,,,-0.0525390625,-0.01171875,-0.95703125,0.0039997552509457145,0.19503810872230612,12.495611140463387,0.1729413833124039,784,0,2.044662869370261,0.32855906870268875,16.07062714213824,0.5936206630649663,0.09539613969424249,0.5542753766051384,-0.24372454199465926,-0.3819548966446949,0.1505859375,0.16291055455733705,0.1,0,1,1,0,0,0,0,,
9.900948138499817,1100,,,,-0.088671875,-0.0208984375,-0.959375,0.004024470023694517,0.20127223083171752,12.495487304488595,0.1730756410994144,784,0,2.0223216032847615,0.3305924665216785,16.34811858146508,0.6088500129173361,0.09953975827824904,0.5541353332648883,-0.24375943732246652,-0.3825435428773477,0.1521484375,0.16370616130784968,0.1,0,1,1,0,0,0,0,,
10.151508138499874,1100,,,,-0.04921875,-0.0130859375,-0.9603515625,0.004047956847152881,0.20568213429063248,12.49500833404866,0.17335113191765517,785,0,2.0362437359760768,0.3328846615560416,16.34966765786944,0.6178824265643901,0.10102017665635206,0.5540292603923664,-0.2438158628066919,-0.38295994040885156,0.1533203125,0.1643942228964611,0,0,1,1,0,0,0,0,,
10.405710138499876,1100,,,,-0.0779296875,-0.0046875,-0.959765625,0.004056312937030735,0.20421302916773354,12.495418693348089,0.17151590934305905,786,0,2.024001701494817,0.3336824567292082,16.487244206557776,0.6120274300031282,0.1009013757662342,0.5539179916692069,-0.24377261118737187,-0.382821222690336,0.15234375,0.16496651872662094,0.2,0,1,1,0,0,0,0,,
10.653887638499913,1100,,,,-0.0744140625,-0.029296875,-0.9603515625,0.004195725724511821,0.19934950695183007,12.494965143692296,0.16970419951870097,785,0,1.9886091231420522,0.34505910898956466,17.359980547422673,0.5778889598405347,0.10026396162294765,0.5530364162792399,-0.24389055446356175,-0.382361992989735,0.15546875,0.1653019310821267,0,0,1,1,0,0,0,0,,
10.900524138499936,1100,,,,-0.0712890625,0.002734375,-0.9638671875,0.004340530521866997,0.1927683747991838,12.495498708149803,0.17236660275547178,785,0,2.0123497434113924,0.3568008769953076,17.730478623170715,0.5404264545913262,0.09581418616348608,0.5517235398221855,-0.2436709746985078,-0.3817405809319897,0.154296875,0.16580824703632197,0,0,1,1,0,0,0,0,,
11.153515138499996,1100,,,,-0.066796875,-0.03125,-0.9486328125,0.004472107731882401,0.19541471771279734,12.495543106463114,0.17229324855855094,785,0,2.0110164571734517,0.36771784706336424,18.287083636435966,0.5314550048578537,0.097178300701924,0.5510799402189156,-0.24394456858527605,-0.38199045729935405,0.15390625,0.16635538756442775,0,0,1,1,0,0,0,0,,
11.402039138499788,1100,,,,-0.075,-0.01328125,-0.958984375,0.004432104618496381,0.19591343396372352,12.496005006953801,0.17081649751951822,785,0,2.009986970684178,0.3644673031463451,18.13444452354973,0.5375343385229259,0.09747950842585283,0.5517530735230574,-0.24427259244060115,-0.38203754772156884,0.1544921875,0.16663199946005872,0,0,1,1,0,0,0,0,,
11.650457638499885,1100,,,,-0.067578125,-0.0064453125,-0.9556640625,0.004226912358187167,0.19541219767470028,12.49541487631532,0.17198831546469495,785,0,2.015477393482258,0.347522617931442,17.24206462112216,0.5624915283299322,0.09696088555412245,0.5530697953299909,-0.24411552719765908,-0.38199021934910127,0.1546875,0.16708894903489127,0.1,0,1,1,0,0,0,0,,
11.901224138499936,1100,,,,-0.0685546875,-0.02421875,-0.961328125,0.004097538821794087,0.1974725784932474,12.495593667225847,0.17073359269000635,785,0,2.0001205885715163,0.33686989232469616,16.84428972657001,0.5862981656002318,0.09873122524584024,0.5540040425404303,-0.24410611325084494,-0.38218476725582856,0.153515625,0.16732267105880863,0.2,0,1,1,0,0,0,0,,
12.151448638499902,1100,,,,-0.047265625,-0.0173828125,-0.962109375,0.003967899556151162,0.20236841906277597,12.495186951245126,0.17142521995377324,786,0,2.0088804971185823,0.32641268597556733,16.254236882658958,0.6200184702039033,0.10076198683333085,0.5544351585277697,-0.24366171558594849,-0.3826470485612542,0.150390625,0.1676159631623507,0.1,0,1,1,0,0,0,0,,
12.401320138499978,1100,,,,-0.10078125,0.0052734375,-0.9529296875,0.0039460436349609985,0.20146806844140722,12.49500305904569,0.1718191624329808,786,0,2.021329912195128,0.32462663325673785,16.061481855958483,0.6206320507156108,0.09967398737429672,0.5547298838857989,-0.24377802490640882,-0.3825620345060218,0.15,0.16798580498871246,0,0,1,1,0,0,0,0,,
12.652001138499893,1100,,,,-0.05,-0.059765625,-0.9419921875,0.004066145985339119,0.1982914155090232,12.494776092254657,0.168463940886558,786,0,1.974714602469532,0.33475237157614746,16.958030207192344,0.5925241656476538,0.10043272199467405,0.5543096098427567,-0.24417175389527196,-0.38226208452938104,0.153125,0.1680032338728809,0.1,0,1,1,0,0,0,0,,
12.90273763849991,1100,,,,-0.077734375,-0.008203125,-0.9642578125,0.004127135966582584,0.19182717097790583,12.495206796056308,0.16655151801274543,786,0,1.9464502624053186,0.339633981218108,17.449390807436455,0.5648576510052792,0.09856024168793073,0.5536369129964068,-0.24397615489375207,-0.3816517093837861,0.149609375,0.16782928925557078,0.1,0,1,1,0,0,0,0,,
13.152288638499844,1100,,,,-0.066796875,-0.01328125,-0.9572265625,0.0042593632204419125,0.18722125574507745,12.494944326021201,0.17000369153548464,786,0,1.9878616583092774,0.3505485164775934,17.64488977725357,0.5343096653205287,0.09422038913287546,0.5530015380383468,-0.24426092215574435,-0.38121680377845163,0.1484375,0.1679944690491251,0.1,0,1,1,0,0,0,0,,
13.401647638499924,1100,,,,-0.0353515625,-0.0189453125,-0.96015625,0.004167070647548486,0.19836823965392728,12.494522824867058,0.1720417470444031,786,0,2.030008044984208,0.34291737451868104,16.893340398964355,0.5785186556795134,0.09771693865826783,0.553816340092405,-0.24438195114374683,-0.38226933851682,0.142578125,0.16835882899843352,0.1,0,1,1,0,0,0,0,,
13.651843138499837,1100,,,,-0.0947265625,-0.0041015625,-0.958984375,0.004060973370827404,0.19931063750821706,12.495300894437925,0.16960659654071564,786,0,1.9963007112513966,0.33414469297598715,16.74076683636884,0.5964809492351075,0.0998565292319413,0.554687887495431,-0.24446499200722838,-0.3823583228095322,0.1515625,0.1684608589947536,0,0,1,1,0,0,0,0,,
13.903424138499892,1100,,,,-0.07265625,-0.0203125,-0.9626953125,0.004023733638630877,0.19780744642990558,12.495294113947718,0.1707529436846766,786,0,2.011469238837438,0.3310641820902188,16.45955400217112,0.597497485408092,0.09834311008167804,0.5548213830055228,-0.2443456506904337,-0.38221638658344037,0.1533203125,0.16863215941056392,0.1,0,1,1,0,0,0,0,,
14.152613638499938,1100,,,,-0.08515625,0.0037109375,-0.970703125,0.00402038653405444,0.20002714858585935,12.494654503441536,0.17320656432763054,786,0,2.038005330962189,0.33082315443498134,16.233600923643362,0.6046459048562439,0.09815265661512278,0.5544719673676413,-0.24402366350810661,-0.3824259781327848,0.1541015625,0.16898782050565014,0,0,1,1,0,0,0,0,,
14.402199138499935,1100,,,,-0.025,-0.03671875,-0.9517578125,0.004147810840168563,0.20017380260059187,12.495143943195597,0.1752847873448582,786,0,2.0551644519548753,0.34160632742839625,16.6194679294999,0.5864799860323479,0.09741837997282358,0.5539009191613962,-0.2443336108516232,-0.3824398256852966,0.14765625,0.16945620415601675,0.1,0,1,1,0,0,0,0,,
14.650567638499988,1100,,,,-0.015625,-0.035546875,-0.9486328125,0.004378116251658244,0.1959762375790149,12.495197659695684,0.1773226486205573,786,0,2.0932740926335334,0.3605825659130726,17.227525078434574,0.5437969289179287,0.09362137761084931,0.552170634376607,-0.24429251466617244,-0.3820434778446702,0.1419921875,0.17013117255396454,0,0,1,1,0,0,0,0,,
14.905811638499936,1100,,,,-0.05546875,-0.0015625,-0.9658203125,0.004500870018449464,0.18960791129081234,12.495523866391155,0.17047962296929944,786,0,2.0102696447253967,0.3705740353575373,18.435841262736634,0.511660387933524,0.09432899928291359,0.5513771214636078,-0.2443814817651738,-0.381442159613801,0.140234375,0.17006961938491738,0,0,1,1,0,0,0,0,,
15.156184138499853,1100,,,,-0.1107421875,0.0103515625,-0.9666015625,0.004486638670939867,0.18630742548692583,12.495322986372033,0.16817045917174372,786,0,1.988059943610072,0.3693767883806024,18.581210481884693,0.5043836548760611,0.09371503503566388,0.551288414091031,-0.2442155409446476,-0.3811305169317546,0.1474609375,0.1698939600305685,0,0,1,1,0,0,0,0,,
15.401828138499894,1100,,,,-0.1326171875,0.0208984375,-0.9705078125,0.004517425542802221,0.18844388567361015,12.495199954438329,0.168771812866465,787,0,1.979152624427646,0.3722149459546741,18.808400652789985,0.5062763305191244,0.0952237656716022,0.5513910500581597,-0.2444976445264035,-0.3813322485016586,0.15859375,0.1697892649701513,0.1,0,1,1,0,0,0,0,,
15.650779638499904,1100,,,,-0.072265625,0.0048828125,-0.9525390625,0.0044738097269470005,0.19099131866363725,12.495448689399415,0.17341245048940895,786,0,2.034023435992408,0.36837460625051877,18.11140888909597,0.5185672788882346,0.0939022699736242,0.552090454475811,-0.24482556280203677,-0.3815727854700074,0.1640625,0.17013254559968147,0,0,1,1,0,0,0,0,,
15.90306313849995,1100,,,,-0.0609375,-0.0451171875,-0.9521484375,0.004300073673325902,0.19166225947765955,12.495389383715477,0.17459809245232713,786,0,2.0701770167983287,0.35401567578519033,17.101942306922133,0.54146660230463,0.09260458162292139,0.552923200866393,-0.24444960520061576,-0.3816361378996801,0.1615234375,0.17050818540105164,0.1,0,1,1,0,0,0,0,,
16.150867638499896,1100,,,,-0.046875,-0.061328125,-0.952734375,0.004198444644618364,0.19817634749722246,12.495166468222402,0.17217039952380458,787,0,2.028481858974899,0.3459752487661715,17.056410732300193,0.5731602183653873,0.0976982999698513,0.5534246628716503,-0.24424203150840462,-0.3822512194307422,0.1556640625,0.1705767754229613,0,0,1,1,0,0,0,0,,
16.403727638499763,1100,,,,-0.051171875,-0.0330078125,-0.94375,0.004005841505729934,0.2001327604612267,12.496018938313087,0.17228569874108418,787,0,2.0326710642289605,0.3300828585046022,16.24006315692087,0.6063408037908689,0.09846701776848761,0.5543790141519772,-0.24385209236613448,-0.38243595035204303,0.155078125,0.17074363547796154,0.1,0,1,1,0,0,0,0,,
16.653622638499925,1100,,,,-0.04609375,-0.0404296875,-0.9416015625,0.004059858924557613,0.1993485202850773,12.495833368253608,0.1704302495351641,787,0,2.018734551928646,0.3344002118583184,16.567079880688063,0.5963238110407745,0.09879743240047213,0.5543241634472184,-0.24414472983372382,-0.3823618998254279,0.154296875,0.17060508365202898,0,0,1,1,0,0,0,0,,
16.902499638499783,1080,,,,-0.0603515625,-0.0505859375,-0.9482421875,0.004145375578931079,0.19813102476092484,12.495572353116302,0.17476286496946553,786,0,2.0554925174233856,0.3413599531817342,16.612257192417985,0.5805058198693409,0.09640684522668017,0.5536434883258724,-0.24409658105055954,-0.38224693990950287,0.1515625,0.17106166972759748,0,0,1,1,0,0,0,0,,
17.154855138499848,1000,,,,-0.05390625,-0.0384765625,-0.9609375,0.0032013997196445854,0.19421281286412873,12.497781943930265,0.11976857890293909,695,0,1.3572683393300553,0.258122665394388,19.237756350476854,0.5649298240234831,0.15370796893923033,0.5551824507338372,-0.2394825041082159,-0.3818769695060835,0.14921875,0.167154867655421,0,0,1,1,0,0,0,0,,
17.402297138499797,1000,,,,-0.07109375,-0.006640625,-0.9587890625,-0.002559232114100296,0.17013982488956536,12.499746889101925,0.06556600646622275,654,0,0.702330269873096,0.17295579926990784,25.619824716321325,0.34414612717776305,0.24293101942051212,0.5750602210982375,-0.22035605517754392,-0.3796039191180377,0.16875,0.15844905670906648,0.1,0,1,1,0,0,0,0,,
17.65066563849985,1000,,,,-0.0619140625,-0.014453125,-0.9634765625,-0.00430093617696582,0.13599044983708888,12.500233664097617,0.05535955694632137,559,0,0.5737649084472307,0.25138455713643926,43.83516766045035,0.5423742915703471,0.23727314267364003,0.5813886748437914,-0.21484754205318302,-0.37637942325169255,0.16015625,0.15049244121423305,0,0,1,1,0,0,0,0,,
17.903570638499872,1000,,,,-0.0708984375,-0.0091796875,-0.9630859375,-0.0043951130532578694,0.08777148064645204,12.500561708731642,0.056176916283984,480,0,0.5786646711065008,0.221149244685922,38.233826634067036,0.39644820323659613,0.15182151356978993,0.5815177811156165,-0.21436617319215986,-0.3718264302146105,0.1451171875,0.14328870324930737,0,0,1,1,0,0,0,0,,
18.157414138499835,1000,,,,-0.05703125,-0.0130859375,-0.954296875,-0.00437747961869523,0.06668930573993115,12.50110333004881,0.053629632423058717,468,0,0.5399493656610177,0.21459869997952588,39.80183030445008,0.31069283035337525,0.12345098895024408,0.5813039705012192,-0.21429298228114688,-0.36983578219439994,0.1453125,0.13643905732416206,0.1,0,1,1,0,0,0,0,,
18.402963138499764,1000,,,,-0.0744140625,-0.0060546875,-0.965625,-0.004406037129790565,0.045753370350805345,12.500384548452434,0.04846426962745528,158,0,0.4732029486335376,0.07291884107637983,14.764426046227166,0.15619137108656195,0.04920938486352475,0.58181035598225,-0.2145494133980573,-0.3678589425885047,0.148046875,0.12984147414748293,0,0,1,1,0,0,0,0,,
18.65522563849985,1000,,,,-0.0677734375,-0.016015625,-0.960546875,-0.0042712566614581445,0.022795637594010418,12.501349329926805,0.04941093766510131,0,0,0.48738970693113304,0,0,0,0,0.5813107261725795,-0.21496715324377186,-0.36569119825171414,0.134765625,0.12366182383453703,0.2,0,1,1,0,0,0,0,,
18.903087138499878,1000,,,,-0.075390625,-0.0068359375,-0.965625,-0.004011537276141553,0.011632035189285283,12.50117995091322,0.05006087214719392,0,0,0.5073009081218125,0,0,0,0,0.5801273262235578,-0.21558212289107442,-0.3646370943405229,0.1310546875,0.11817990844116719,0.1,0,1,1,0,0,0,0,,
19.15195263849995,1000,,,,-0.0673828125,-0.009375,-0.9712890625,-0.003905544168074675,0.00038449435281639376,12.500778939558838,0.051676623895006615,0,0,0.5129673872193753,0,0,0,0,0.5806443203185705,-0.21669428033708904,-0.3635750646876226,0.1220703125,0.11320865969184195,0.2,0,1,1,0,0,0,0,,
19.401230138499848,1000,,,,-0.069140625,-0.0185546875,-0.96328125,-0.0027488115959127556,-0.0011190716825766316,12.500535156060183,0.05134969252514786,0,0,0.5262898533563471,0,0,0,0,0.5729390376290086,-0.2173363977191171,-0.36343309305685473,0.111328125,0.10853793361855983,0.1,0,1,1,0,0,0,0,,
19.653674138499888,1000,,,,-0.0625,-0.034375,-0.9548828125,-0.0016251263133378103,-0.0005780615488418945,12.500829218868699,0.04876000124599682,0,0,0.48906684172020254,0,0,0,0,0.5618661442369721,-0.2148702944892788,-0.36348417700603974,0.096875,0.10398109438549566,0.1,0,1,1,0,0,0,0,,
19.90277913849992,1000,,,,-0.0625,-0.037890625,-0.949609375,-0.00016515958089194152,-0.0015398903530306498,12.500326887435392,0.04745192096949312,0,0,0.469131881113238,0,0,0,0,0.5653470120569104,-0.22705420484283323,-0.363393357979382,0.084765625,0.09966836594032744,0,0,1,1,0,0,0,0,,
20.152208138499923,1000,,,,-0.0625,-0.0376953125,-0.950390625,-0.00036144114880065116,-0.010137628954281446,12.50085987316955,0.04886076698416135,0,0,0.4832152161066766,0,0,0,0,0.5678581412796493,-0.22798186512377705,-0.3625815313343248,0.0759765625,0.09585439416259271,0.3,0,1,1,0,0,0,0,,
20.403724638499927,1000,,,,-0.0625,-0.037890625,-0.9505859375,-0.00016577490523566566,-0.013991441037034482,12.501528075180703,0.04597639260010904,0,0,0.44767011661507644,0,0,0,0,0.5688040450344288,-0.2300276340995265,-0.3622176417723223,0.0703125,0.09207585361815143,0,0,1,1,0,0,0,0,,
20.65356263849996,1000,,,,-0.0625,-0.037890625,-0.9505859375,-0.00007878503515998687,-0.014401795789085138,12.501315146274646,0.04724097903035761,0,0,0.44925725774156805,0,0,0,0,0.568387351186323,-0.23021610337982823,-0.36217889473230497,0.06640625,0.0886574850511047,0.1,0,1,1,0,0,0,0,,
20.905512138499972,1000,,,,-0.0625,-0.037890625,-0.9509765625,0.00006533480476217348,-0.013671081591985327,12.501123387086755,0.045478879679129884,0,0,0.4276478488445953,0,0,0,0,0.5674460743786888,-0.2303122466801127,-0.3622478911606263,0.0634765625,0.08539087338205582,0,0,1,1,0,0,0,0,,
21.154893638499825,1000,,,,-0.0625,-0.0380859375,-0.951171875,0.0002295977792804806,-0.0015368960278688843,12.500964312759148,0.04717729850753553,0,0,0.4647279216374665,0,0,0,0,0.5665635592172179,-0.23058573748893632,-0.36339364071337316,0.0619140625,0.0824791869986669,0,0,1,1,0,0,0,0,,
21.402916138499975,1000,,,,-0.0625,-0.037109375,-0.9505859375,0.00026932923883104794,-0.003009570685102927,12.500890706485345,0.05017256184047114,0,0,0.4956543021460388,0,0,0,0,0.5662131438223698,-0.23053393877106626,-0.36325458594773175,0.060546875,0.08017535790895235,0.2,0,1,1,0,0,0,0,,
21.650575638499994,1000,,,,-0.0625,-0.0376953125,-0.9509765625,0.00026213762463589863,-0.011709150286753869,12.501821220195016,0.04586928354849657,0,0,0.4527418052368512,0,0,0,0,0.5661098058308607,-0.23039969148580464,-0.3624331431417841,0.06015625,0.07750720189026458,0.1,0,1,1,0,0,0,0,,
21.90379413849991,1000,,,,-0.0625,-0.0380859375,-0.950390625,0.00020612994398828965,-0.00896561183528292,12.501511955707908,0.045263641869710415,0,0,0.43866126871916145,0,0,0,0,0.5663575987061442,-0.23026069893495488,-0.3626921970302472,0.05859375,0.07503657091062069,0,0,1,1,0,0,0,0,,
22.153234638499935,1000,,,,-0.0625,-0.0376953125,-0.9505859375,0.00012018595427121354,-0.008031550835950464,12.501055659179093,0.04769415094973765,0,0,0.46410885587795453,0,0,0,0,0.5667717433754603,-0.23007661488395975,-0.3627803941298028,0.05859375,0.07298258061045611,0.1,0,1,1,0,0,0,0,,
22.402838138499902,1000,,,,-0.0625,-0.0380859375,-0.9498046875,0.00012987508147352286,-0.010135006403932329,12.501196517674746,0.04756362848610648,0,0,0.45124506701249156,0,0,0,0,0.5670027672184637,-0.2303365433713153,-0.3625817789641203,0.05859375,0.07108384407412217,0,0,1,1,0,0,0,0,,
22.65539763849988,1000,,,,-0.0625,-0.0376953125,-0.9509765625,0.00014908450043826386,-0.008704849334910284,12.501007098824061,0.04796809778908769,0,0,0.46254867645882297,0,0,0,0,0.5667789311533177,-0.23026463430344551,-0.3627168190797945,0.05859375,0.06933005482659274,0,0,1,1,0,0,0,0,,
22.902768138499837,1000,,,,-0.0625,-0.0380859375,-0.950390625,0.00022941120011949647,0.0007205765008267008,12.501466230791223,0.04599564416464479,0,0,0.43791345754533495,0,0,0,0,0.5662136297952384,-0.23028319378454665,-0.3636067986650482,0.05859375,0.06754779175172182,0.2,0,1,1,0,0,0,0,,
23.1500446384999,1000,,,,-0.0625,-0.0375,-0.9509765625,0.00028856014623602,-0.006085241070071855,12.501536782341866,0.04539563161773116,0,0,0.41486077952422545,0,0,0,0,0.5661804255342328,-0.23062676129072018,-0.3629641710740384,0.05859375,0.0659217151703841,0.1,0,1,1,0,0,0,0,,
23.40393163849991,1000,,,,-0.0625,-0.037890625,-0.95078125,0.00027609392161672926,-0.009237387926597701,12.501391680429041,0.04590718531143764,0,0,0.4202482772675438,0,0,0,0,0.566244558123613,-0.23060355696508922,-0.3626665350413624,0.05859375,0.0643638466114621,0,0,1,1,0,0,0,0,,
23.652286138499807,1000,,,,-0.0625,-0.0376953125,-0.951171875,0.00026176978031350545,-0.0022812455811778557,12.50090867551373,0.04670657526242819,0,0,0.44888596131715097,0,0,0,0,0.5662491467361516,-0.23051738159864438,-0.3633233567900488,0.05859375,0.06305426807402385,0,0,1,1,0,0,0,0,,
23.90782913849987,1000,,,,-0.0625,-0.037890625,-0.9505859375,0.0002620458078347775,0.007246722205987919,12.501180466703499,0.04336919520781259,0,0,0.40089698113057326,0,0,0,0,0.566335417027797,-0.23059341693053792,-0.36422301872228546,0.05859375,0.061517475017455234,0.1,0,1,1,0,0,0,0,,
24.15784863849995,1000,,,,-0.0625,-0.0380859375,-0.950390625,0.00022623468165074208,0.0022268620189725176,12.501135968785333,0.04207010497863481,0,0,0.3893797781349475,0,0,0,0,0.566367792440291,-0.23039597670289352,-0.3637490270782865,0.05859375,0.06003069957524052,0,0,1,1,0,0,0,0,,
24.401568638499825,1000,,,,-0.0625,-0.0375,-0.9505859375,0.0001463088208504872,-0.0017492748427172143,12.500843468756068,0.04242552851743042,0,0,0.3881023126354056,0,0,0,0,0.5668945038862215,-0.23034670449821934,-0.36337358720991875,0.05859375,0.05869410521750423,0.1,0,1,1,0,0,0,0,,
24.65080363850007,1000,,,,-0.0625,-0.0373046875,-0.950390625,0.0001657429871403534,0.001507800012681046,12.500795165836767,0.043761195031472244,0,0,0.42782162744589725,0,0,0,0,0.5669208241429176,-0.23049165169082858,-0.36368113088799403,0.05859375,0.05762132661953799,0,0,1,1,0,0,0,0,,
24.901134638499887,1000,,,,-0.0625,-0.0380859375,-0.9505859375,0.00015507955041737194,-0.005638002152106553,12.500490809032696,0.0421368084048729,0,0,0.39195464249056206,0,0,0,0,0.5669064130297868,-0.2304121462705166,-0.36300640083783436,0.05859375,0.05645376219034517,0,0,1,1,0,0,0,0,,
25.15008713849983,1000,,,,-0.0625,-0.0376953125,-0.950390625,0.00015330734675047145,-0.008260922923770286,12.50070063654961,0.042372811199053874,0,0,0.4108694781788288,0,0,0,0,0.5668880682299069,-0.2303851965057305,-0.36275873606584425,0.05859375,0.055395278633048085,0.1,0,1,1,0,0,0,0,,
25.404402138499965,1000,,,,-0.0625,-0.0380859375,-0.951171875,0.00015258441790489118,-0.005016725681131648,12.50058248255338,0.04222764172062953,0,0,0.383816357954898,0,0,0,0,0.5667914306367525,-0.23029742064728,-0.36306506379753534,0.05859375,0.05435272652565113,0,0,1,1,0,0,0,0,,
25.65121963849985,1000,,,,-0.0625,-0.0375,-0.9505859375,0.000134799410771788,-0.004272828256185102,12.501009084472114,0.04436468588534245,0,0,0.4157815511315485,0,0,0,0,0.5668435004036076,-0.23023036177993422,-0.36313530502941854,0.05859375,0.0536121009497735,0,0,1,1,0,0,0,0,,
25.91236263849991,1000,,,,-0.0625,-0.037890625,-0.9509765625,0.00016546391148960262,-0.007518013626594699,12.500992983831988,0.0476340135190786,0,0,0.45140409887732424,0,0,0,0,0.5668060816844807,-0.23039107609304033,-0.362828883995466,0.05859375,0.05321922080140562,0,0,1,1,0,0,0,0,,
26.176385138499832,1000,,,,-0.0625,-0.0375,-0.95078125,0.00018113976971876448,-0.015049428958693755,12.501007327120746,0.044638605561619665,0,0,0.4189790193138531,0,0,0,0,0.5668213862281035,-0.2305028890209376,-0.3621177430867741,0.05859375,0.05249886273532872,0,0,1,1,0,0,0,0,,
26.42598713849997,1000,,,,-0.0625,-0.0373046875,-0.9515625,0.0001425179314227506,-0.013419369461769628,12.501111325172442,0.04421847190093619,0,0,0.4170598249993665,0,0,0,0,0.5667928095665473,-0.2302352700865269,-0.3622716586445742,0.05859375,0.05185185505780299,0.1,0,1,1,0,0,0,0,,
26.680502138499957,1000,,,,-0.0625,-0.0376953125,-0.9505859375,0.00011764856470352985,-0.01052928985258621,12.500954201117406,0.042086561622856344,0,0,0.39810199654237916,0,0,0,0,0.5669533868137806,-0.23021708647528807,-0.36254454942921965,0.05859375,0.05112244918480361,0.1,0,1,1,0,0,0,0,,
26.928836138499804,1000,,,,-0.0625,-0.037890625,-0.95078125,0.00008715947578357599,0.0010366370223561076,12.501008791594783,0.04387458323497788,0,0,0.43257221159770953,0,0,0,0,0.5673537603875722,-0.23037006349646685,-0.3636366421349101,0.05859375,0.05055768345840289,0.1,0,1,1,0,0,0,0,,
27.1801426384999,1000,,,,-0.0625,-0.037890625,-0.95078125,0.00012074358574912667,0.0031096571415190405,12.500712911127684,0.044747347744469444,0,0,0.42792714616761873,0,0,0,0,0.567155345850665,-0.23041049348936976,-0.36383238348580804,0.05859375,0.05012911489133395,0,0,1,1,0,0,0,0,,
27.426402138500055,1000,,,,-0.0625,-0.0380859375,-0.9509765625,0.00017145383915610229,0.0023768919057060417,12.500232703186914,0.045615882942191266,0,0,0.435274427918311,0,0,0,0,0.5666040813121513,-0.23025479579972644,-0.3637631933916921,0.05859375,0.04984969211533895,0,0,1,1,0,0,0,0,,
27.67658363849991,1000,,,,-0.0625,-0.0376953125,-0.9509765625,0.0002069716248751097,0.0005821637265995237,12.500043695118128,0.04399163002041537,0,0,0.4226296726402947,0,0,0,0,0.5664287448090076,-0.23032726794013728,-0.36359372927746314,0.05859375,0.04935032798132013,0.1,0,1,1,0,0,0,0,,
27.92849563849983,1000,,,,-0.0625,-0.0380859375,-0.9509765625,0.0002234639353807933,-0.001510901343541573,12.50084212568369,0.04130220061608281,0,0,0.39644010581109995,0,0,0,0,0.566371810585647,-0.23038200376914242,-0.36339609521662636,0.05859375,0.04871227758217318,0.2,0,1,1,0,0,0,0,,
28.180712138499928,1000,,,,-0.0625,-0.0376953125,-0.949609375,0.0001346749382551687,0.001131995992712639,12.501398378607783,0.04374829248667906,0,0,0.43844492366481136,0,0,0,0,0.5671963891730605,-0.2305334970323631,-0.3636456462412886,0.05859375,0.04836325826436607,0.1,0,1,1,0,0,0,0,,
28.428502138499915,1000,,,,-0.0625,-0.037109375,-0.95078125,0.00012752222069026964,-0.004581988868748791,12.501605381695635,0.04440687998173534,0,0,0.4224926804365551,0,0,0,0,0.5673529264605207,-0.23062330689707586,-0.36310611307156526,0.05859375,0.04807779030195366,0.1,0,1,1,0,0,0,0,,
28.677982638499838,1000,,,,-0.0625,-0.0380859375,-0.9505859375,0.00017598774757108046,0.0023886034750888008,12.501601243443373,0.0426845648018537,0,0,0.38681871688027686,0,0,0,0,0.566782749297041,-0.23043719730997517,-0.3637642992364406,0.05859375,0.047669085308326864,0,0,1,1,0,0,0,0,,
28.929381638499954,1000,,,,-0.0625,-0.0376953125,-0.9509765625,0.000212719239262459,0.007545061078390785,12.501118226313597,0.04339600374935603,0,0,0.40621077585649334,0,0,0,0,0.5665825736569932,-0.23049591385227003,-0.3642511888559807,0.05859375,0.047296604138754354,0,0,1,1,0,0,0,0,,
29.177642138499856,1000,,,,-0.0625,-0.03828125,-0.951171875,0.0002032556216426301,0.005828639660977253,12.501557647789442,0.043486668528839666,0,0,0.41625928223278363,0,0,0,0,0.5665878233127393,-0.23044089011634744,-0.364089118722725,0.05859375,0.04706525619240146,0,0,1,1,0,0,0,0,,
29.427185138499926,1000,,,,-0.0625,-0.0380859375,-0.9505859375,0.00015702670566947595,-0.006525103708387287,12.501090801633385,0.04319354461333223,0,0,0.40164577310359856,0,0,0,0,0.5669082305025912,-0.2304259629956739,-0.3629226378027317,0.05859375,0.04673638959486363,0,0,1,1,0,0,0,0,,
29.67849463849999,1000,,,,-0.0625,-0.0376953125,-0.950390625,0.00011591244110081684,-0.010793082290684259,12.501218229434917,0.043149675595233555,0,0,0.4081368024343983,0,0,0,0,0.5669398338753413,-0.2301944906208817,-0.3625196412830262,0.05859375,0.046500302626293406,0.1,0,1,1,0,0,0,0,,
29.927625138499867,1000,,,,-0.0625,-0.0380859375,-0.950390625,0.00016862038680030933,-0.006443897277316511,12.500430367450864,0.04047732630756959,0,0,0.36308905139404635,0,0,0,0,0.5666918903872427,-0.230312591591508,-0.3629303055799869,0.05859375,0.04601924550594468,0.1,0,1,1,0,0,0,0,,
30.176034638499893,1000,,,,-0.0625,-0.0380859375,-0.9505859375,0.00018829326615431841,-0.0036631051332003837,12.500403143145022,0.04542976010134208,0,0,0.4165795801933019,0,0,0,0,0.5665503720026894,-0.2303144930718596,-0.36319287708415326,0.05859375,0.04602120987713104,0,0,1,1,0,0,0,0,,
30.42803663849984,1000,,,,-0.0625,-0.0380859375,-0.9505859375,0.0002049597989122563,-0.0014515926554331687,12.500496709129886,0.04244025166429423,0,0,0.3881841116655,0,0,0,0,0.5668467368856992,-0.23067459692945888,-0.36340169533725375,0.05859375,0.04570035231663661,0.1,0,1,1,0,0,0,0,,
30.678365138499856,1000,,,,-0.0625,-0.0375,-0.951171875,0.00019458394968887733,-0.0005862854273396339,12.500558530137496,0.041290750616381794,0,0,0.3733702727933834,0,0,0,0,0.5669293774566897,-0.2306804848359457,-0.3634834004804903,0.05859375,0.04539222282287259,0,0,1,1,0,0,0,0,,
30.930701138499938,1000,,,,-0.0625,-0.0376953125,-0.9505859375,0.00016669999980663955,-0.0019612776293217683,12.50066375155459,0.04031283571370759,0,0,0.3654997742360874,0,0,0,0,0.5668775517723568,-0.23046040572772658,-0.3633535692122831,0.05859375,0.04494647708763257,0,0,1,1,0,0,0,0,,
31.179940138499905,1000,,,,-0.0625,-0.038671875,-0.950390625,0.00016212574335064417,-0.003389860873576629,12.500913190223542,0.044438447533915924,0,0,0.4098946303346023,0,0,0,0,0.5668867389875458,-0.2304395369016036,-0.3632186777022995,0.05859375,0.04494592427068414,0,0,1,1,0,0,0,0,,
31.426806138499877,1000,,,,-0.0625,-0.0376953125,-0.95078125,0.0001590064386197694,-0.015553629231679788,12.500704658124699,0.04763448875827002,0,0,0.4487940674186216,0,0,0,0,0.5668797982342049,-0.23041393271136723,-0.3620701348452306,0.05859375,0.04517978151903427,0,0,1,1,0,0,0,0,,
31.677964138499977,1000,,,,-0.0625,-0.0380859375,-0.9501953125,0.00016334393406477657,-0.011183715803399984,12.500805912061796,0.04503535277965039,0,0,0.42448859516720094,0,0,0,0,0.566789521705428,-0.23036347528397635,-0.362482756387034,0.05859375,0.04521137681523929,0,0,1,1,0,0,0,0,,
31.92887163849995,1040,,,,-0.0625,-0.0376953125,-0.9505859375,0.00020007250309611474,-0.00623752404823535,12.501012257366039,0.04282223073116728,0,0,0.3962512560489463,0,0,0,0,0.5664792841710103,-0.2303273848203855,-0.3629497920163588,0.05859375,0.044966673859549326,0.2,0,1,1,0,0,0,0,,
32.17887863849988,1200,,,,-0.0666015625,-0.02109375,-0.959765625,0.00981052670348762,-0.009022457832867163,12.483136212335873,0.5316143050169602,226,0,6.49335240103431,0.5685223714653969,8.133517629085473,4.446992904481542,0.0009796880817953876,0.5519178920617983,-0.2782554659817777,-0.362686829444927,0.09765625,0.08475349833442222,0,0,1,1,0,0,0,0,,
32.444319138499864,1200,,,,-0.0671875,-0.0197265625,-0.95546875,0.03429467076962262,0.10952100371371797,12.48665694539406,0.4344138113451138,861,0,5.294689120673017,3.0741771925586385,58.74071377219775,0.03652693990073767,0.022186183061504036,0.4788123380264156,-0.3693485190967668,-0.37388009143440165,0.1234375,0.114701963273209,0,0,1,1,0,0,0,0,,
32.70375113849993,1200,,,,-0.075,0.01328125,-0.9599609375,0.023165196315612122,0.22082946560570815,12.489399513243113,0.34699653951726084,996,0,4.186387978979993,2.411524785310526,57.55525942527995,0.0927557400596532,0.05301651923189155,0.4907119362853331,-0.30957037513722574,-0.38439020105451693,0.12890625,0.1313901066566058,0.1,0,1,1,0,0,0,0,,
32.95235663849986,1200,,,,-0.0623046875,-0.01484375,-0.9623046875,0.01781114487792898,0.2950259525082616,12.489978817333686,0.324925697538768,1065,0,3.907841395542885,1.985341407547973,50.78728522311659,0.14930835006540732,0.07554911823905014,0.506753698120967,-0.28969843611004287,-0.39139607641671514,0.1396484375,0.145529637662541,0,0,1,1,0,0,0,0,,
33.20376013849992,1200,,,,-0.0654296875,-0.0158203125,-0.961328125,0.015827738596124272,0.3561446456229758,12.49008164266691,0.3196896427294883,1109,0,3.850864842444146,1.8375194531705574,47.71395986215294,0.19404365975388654,0.09250805782953272,0.5123299201753172,-0.2820212927619549,-0.39716710364640734,0.1478515625,0.15869098690892264,0,0,1,1,0,0,0,0,,
33.45289113849993,1200,,,,-0.0642578125,-0.0103515625,-0.95625,0.014455964146563716,0.3867065974460794,12.489944903141815,0.3120683586752312,1136,0,3.771078864670276,1.7199276468589155,45.611793213475394,0.2249198048537331,0.1025503977812202,0.5184444537204305,-0.2786561350329914,-0.40005286325898004,0.1560546875,0.17010876913939132,0,0,1,1,0,0,0,0,,
33.70327513849987,1200,,,,-0.0755859375,-0.0203125,-0.9552734375,0.01394332171564006,0.40702122285886516,12.489780164607613,0.31671636939355413,1154,0,3.8193873368292706,1.685141674942555,44.121226707831546,0.2415401464881911,0.10656281045293871,0.5199736736288666,-0.276747609075003,-0.4019710367414879,0.1609375,0.1812384864284283,0.1,0,1,1,0,0,0,0,,
33.95214263849984,1200,,,,-0.0642578125,-0.0134765625,-0.955859375,0.01379364072347411,0.437714695796287,12.490181423011574,0.3149174050815438,1166,0,3.810576077346654,1.683524813776744,44.18078286965085,0.26000915858824586,0.11487705565213696,0.5199334918140581,-0.2757712134032953,-0.40486921500853984,0.17109375,0.1913341972981338,0,0,1,1,0,0,0,0,,
34.20407413849979,1200,,,,-0.0673828125,-0.028515625,-0.9578125,0.013543787896392063,0.4492312456660625,12.490975470396295,0.31271280292713016,1172,0,3.7682731215364007,1.6625321589218789,44.11982557711774,0.27021274143092916,0.11921656338055563,0.520673852528809,-0.2748367652228314,-0.40595664537564274,0.1833984375,0.2004963305654554,0,0,1,1,0,0,0,0,,
34.45158663849985,1200,,,,-0.0650390625,0.0056640625,-0.957421875,0.013281802510716334,0.4493552600193288,12.490703041236864,0.3120745883636272,1177,0,3.7714459576394743,1.6364103801044088,43.39035155779539,0.2746125187961329,0.11914804785461088,0.5219153397791635,-0.27425756447794536,-0.4059683552171511,0.1939453125,0.20885119274892783,0,0,1,1,0,0,0,0,,
34.70299863849981,1200,,,,-0.0998046875,-0.0115234375,-0.978125,0.013084910719538323,0.4475464325180913,12.490100132281778,0.3172294054655038,1179,0,3.8323856329371138,1.6160849756251392,42.17028504838544,0.276933963886003,0.11678331980167114,0.5230595029596639,-0.27400411294135407,-0.4057975597987369,0.201171875,0.21711206300355843,0,0,1,1,0,0,0,0,,
34.95619913849984,1200,,,,-0.0751953125,0.01328125,-0.9599609375,0.013219255350699524,0.4428849691122245,12.490014147870637,0.3184538740426064,1183,0,3.8420714753619336,1.63771025305455,42.62694729818352,0.27044955177849883,0.115272384275013,0.5220806060723333,-0.27400635127368533,-0.4053574091529275,0.2037109375,0.22490899147721977,0.1,0,1,1,0,0,0,0,,
35.20498313849997,1200,,,,-0.0771484375,-0.00703125,-0.94765625,0.01306737007145253,0.446387074821871,12.490648407878684,0.3163791302328269,1184,0,3.8195328280150775,1.6198509850526368,42.40950507737939,0.27559620647709865,0.1168731842963324,0.5232144862162798,-0.27402722377169975,-0.40568808944698576,0.205078125,0.23177213121284385,0,0,1,1,0,0,0,0,,
35.45203313849978,1200,,,,-0.0662109375,-0.0322265625,-0.954296875,0.012921074316001277,0.45762207920521575,12.491029691584208,0.31604779966640917,1184,0,3.827029294136834,1.6019752210603948,41.86081188054901,0.28566870955836643,0.11957876968145759,0.5242215935338393,-0.2739740848701554,-0.40674893536691237,0.204296875,0.23803304191598432,0,0,1,1,0,0,0,0,,
35.70386513849986,1200,,,,-0.0845703125,0.0001953125,-0.959765625,0.012741409857622257,0.4634259639877536,12.490171659608095,0.3129178242912659,1184,0,3.784017458590283,1.57992839546932,41.75322900384324,0.29332451560577044,0.12247437928499719,0.5256122837146873,-0.27404134384929135,-0.40729695718169767,0.19921875,0.24369830956421676,0.1,0,1,1,0,0,0,0,,
35.95281263849982,1200,,,,-0.0724609375,-0.0150390625,-0.9482421875,0.012848931137371802,0.46147828550739456,12.489898876268722,0.31401619078751974,1184,0,3.797221738387159,1.5932636023569482,41.95865161324196,0.2896482525703313,0.1215308989123183,0.5245987436416576,-0.273844974423353,-0.40711305099895656,0.1982421875,0.24900476209897998,0,0,1,1,0,0,0,0,,
36.20142713849991,1200,,,,-0.0724609375,-0.023046875,-0.963671875,0.012957266103314602,0.464602979854542,12.489945045639793,0.31366708736720195,1184,0,3.783946498107528,1.6067177632775962,42.46246124937388,0.2891603697771308,0.12278467469979981,0.523506624744756,-0.27358605024653676,-0.40740809487576224,0.198828125,0.2538600471661805,0,0,1,1,0,0,0,0,,
36.45189013849991,1200,,,,-0.0669921875,0.0115234375,-0.9552734375,0.013118412981652441,0.4741556227091856,12.490126814085702,0.31220024259761775,1184,0,3.7611443203424684,1.626632720464659,43.249202221395564,0.2914949465357518,0.12607027472679552,0.5224722510161509,-0.2737091494696379,-0.408310086708706,0.1990234375,0.2582484602315359,0,0,1,1,0,0,0,0,,
36.70126413849992,1200,,,,-0.0609375,-0.041015625,-0.9568359375,0.013306204714578232,0.46410442305104166,12.489949136421592,0.3127116241969779,1184,0,3.786425099438361,1.6495050462790837,43.5637316900703,0.2813836621995959,0.12257564642542643,0.5207562631958597,-0.27341287102407985,-0.4073610195090958,0.1998046875,0.2623693499058202,0,0,1,1,0,0,0,0,,
36.95160813849997,1200,,,,-0.0705078125,-0.0109375,-0.9607421875,0.013366817521085672,0.4553804493145429,12.489621305692275,0.31199414621087773,1183,0,3.8042642307451926,1.6566061223070196,43.547031737146845,0.2748873964478693,0.11970583478745325,0.5206256594813994,-0.2736817657700016,-0.4065372733290202,0.199609375,0.26608971217214716,0,0,1,1,0,0,0,0,,
37.20169363850001,1200,,,,-0.0798828125,0.0138671875,-0.9505859375,0.013278304916964908,0.4520282402194508,12.490093631732737,0.31591656083508285,1184,0,3.836429812299901,1.6457083343362442,42.89730027468691,0.2746715971636915,0.11782643318231316,0.5213412925304484,-0.27374117091544886,-0.4062207467643718,0.1994140625,0.2699126183100306,0,0,1,1,0,0,0,0,,
37.455359638499885,1200,,,,-0.0533203125,-0.030078125,-0.965625,0.013252416388801877,0.4529943872258149,12.490214599227155,0.3143789703143195,1185,0,3.8052771443016646,1.644300723035558,43.21199650790119,0.2754944239346285,0.11904737969238047,0.5217507819340298,-0.27393094540220125,-0.4063119735298256,0.197265625,0.2733417357243575,0.1,0,1,1,0,0,0,0,,
37.7036716384999,1200,,,,-0.0775390625,0.007421875,-0.9533203125,0.01315947807248973,0.4765757177641261,12.489748023680495,0.3107607571718643,1184,0,3.7648225046169097,1.6321865579867019,43.354600993943485,0.2920044590828828,0.12658854003980563,0.5221371158754684,-0.2736789017486727,-0.40853860001206294,0.2001953125,0.2760715686642027,0.1,0,1,1,0,0,0,0,,
37.97680063849985,1200,,,,-0.0607421875,-0.02578125,-0.9666015625,0.01293107754445377,0.4819484331391062,12.489411659289239,0.3160046005923307,1184,0,3.8070595417196906,1.6035905433218827,42.12206904781194,0.3005438179135097,0.12659484194784185,0.5235747202412827,-0.27347991823643614,-0.4090459093988688,0.198046875,0.27940197134853617,0.1,0,1,1,0,0,0,0,,
38.2312821384998,1200,,,,-0.065625,-0.0154296875,-0.955078125,0.012939507720689697,0.46452488037968365,12.490021406401889,0.3145367444645505,1185,0,3.789988825111,1.6051567240730669,42.35335044037684,0.2894080103714663,0.12256254464050721,0.5238971605791893,-0.2738106560661396,-0.407400720467491,0.1990234375,0.2821316409955104,0.1,0,1,1,0,0,0,0,,
38.47636713849986,1200,,,,-0.06953125,-0.0033203125,-0.9658203125,0.012913581991771516,0.4567865419817794,12.490151270621917,0.3131360544107261,1184,0,3.80097157135042,1.6009797419138934,42.120563541033064,0.2853296184100106,0.12017696184741766,0.524071100883965,-0.2737973345119653,-0.4066700412050424,0.1986328125,0.2843885852564132,0.1,0,1,1,0,0,0,0,,
38.72993663849989,1200,,,,-0.0779296875,-0.0125,-0.95859375,0.012803581307299198,0.467034781049892,12.490355089050801,0.31253643573154954,1183,0,3.7853774995691465,1.586816293575882,41.92061628737805,0.2943220329303009,0.1233842090675995,0.5248936818254544,-0.27381364381932455,-0.40763771351124617,0.19765625,0.2865761391030488,0,0,1,1,0,0,0,0,,
38.97772463849993,1200,,,,-0.073046875,0.00390625,-0.957421875,0.01279768569053393,0.47109488039285646,12.49047849584949,0.3107200577862663,1183,0,3.7829067413683175,1.5854474526611058,41.91129279896522,0.297155541224182,0.12453951774417654,0.5245131119120362,-0.2734487904481006,-0.4080210813921582,0.198046875,0.28828873178406456,0.1,0,1,1,0,0,0,0,,
39.227780138499895,1200,,,,-0.0650390625,-0.0138671875,-0.9685546875,0.012944522506841648,0.4759725007822356,12.490292618411136,0.31436435520364026,1183,0,3.799308876573364,1.6034723723176731,42.204916604718974,0.29683940367951495,0.12528054946999004,0.5237573699975813,-0.2737218171458733,-0.4084816422884846,0.20078125,0.2903320847506064,0.1,0,1,1,0,0,0,0,,
39.47647863849993,1200,,,,-0.0638671875,-0.0140625,-0.9615234375,0.012886149246511422,0.4757253005106722,12.490140913044314,0.31617461460322727,1183,0,3.8030602211598676,1.5959810562291974,41.96618817874763,0.29807720322534065,0.1250912513429417,0.5241135949349806,-0.2736613253697673,-0.4084583008290116,0.201953125,0.29228338637799467,0,0,1,1,0,0,0,0,,
39.72672363849985,1200,,,,-0.0705078125,-0.0486328125,-0.9537109375,0.01282414571369594,0.4715002052340295,12.490378440624609,0.3158391308752808,1182,0,3.817794330928359,1.587983118235065,41.59545226774228,0.296918939353118,0.12350621615500554,0.5242701574769499,-0.2734060367247164,-0.4080593534915124,0.2041015625,0.29403703064584413,0,0,1,1,0,0,0,0,,
39.97693163849986,1200,,,,-0.053515625,-0.024609375,-0.9537109375,0.01293082287206541,0.47082042347716935,12.490493171339116,0.3162140148367209,1182,0,3.8167460854307778,1.6010257933687964,41.94830305301072,0.2940770833593613,0.12335859511215419,0.5234904662361425,-0.27340575375725573,-0.4079951662710538,0.2052734375,0.29576679557613905,0.1,0,1,1,0,0,0,0,,
40.22710263849991,1200,,,,-0.072265625,-0.0046875,-0.9626953125,0.012995505422216844,0.46768482905224174,12.490220841464676,0.31515506363561635,1182,0,3.803547013792174,1.6092471085530644,42.31013418878566,0.2906241418267423,0.12296201168127277,0.5231550003982786,-0.2735238218232759,-0.4076990931731955,0.20546875,0.2972263754850842,0.1,0,1,1,0,0,0,0,,
40.47779363849996,1200,,,,-0.076953125,0.0130859375,-0.9587890625,0.013041188239901932,0.47044675588924606,12.490233487597155,0.31323656569022335,1182,0,3.781934834356849,1.6146333242456905,42.69473677183668,0.29136362980476166,0.12439407038339946,0.522935140979657,-0.27362190767149197,-0.4079598833532613,0.201953125,0.29837913067083843,0,0,1,1,0,0,0,0,,
40.72977113849991,1200,,,,-0.0578125,-0.019140625,-0.9654296875,0.0131057662180265,0.4744584702661787,12.489814365413753,0.31350533477274184,1183,0,3.7800914047388545,1.62303531732823,42.93707106341952,0.29232931831713355,0.12551664783596897,0.5225248014966807,-0.2736748343353064,-0.4083386825671706,0.1990234375,0.2995618265079825,0.1,0,1,1,0,0,0,0,,
40.980995638499834,1200,,,,-0.0578125,-0.03203125,-0.953125,0.013125643385482699,0.46906091956939416,12.489972375638956,0.31435737085747056,1183,0,3.7858308990387117,1.6260877107814842,42.952314807981594,0.28845981297977347,0.12389989938416182,0.5224684239059348,-0.2737513470069873,-0.40782902814791927,0.199609375,0.30070337500064853,0,0,1,1,0,0,0,0,,
41.22842213849994,1200,,,,-0.070703125,-0.0146484375,-0.955859375,0.013062952285153976,0.4616297673292207,12.490096056008909,0.3098089556197402,1183,0,3.7329062501191537,1.6179149205864474,43.3424018960922,0.2853269328716907,0.12366826438549604,0.5228162104166925,-0.27365642003878776,-0.4071273544088303,0.2005859375,0.30132994166326865,0.1,0,1,1,0,0,0,0,,
41.4814731385,1200,,,,-0.06484375,-0.0095703125,-0.9603515625,0.013058234145660114,0.4625654273850788,12.490125891950704,0.3141202842897712,1182,0,3.809593601988978,1.6169706379989457,42.445970081150676,0.28606888484585324,0.12142554536837574,0.5229837343072303,-0.2737710102145322,-0.40721570249654154,0.1994140625,0.3023288332294059,0,0,1,1,0,0,0,0,,
41.728504638499864,1200,,,,-0.0658203125,-0.025,-0.9603515625,0.013034544907435757,0.4646726641348157,12.49018450197401,0.31341587873165344,1182,0,3.7859186710525883,1.6139035277872829,42.629332231473725,0.2879184443083363,0.12273812027984446,0.5233837768310506,-0.2739664866534575,-0.40741467469379244,0.1986328125,0.30316579326220966,0.1,0,1,1,0,0,0,0,,
41.97813713849988,1200,,,,-0.051953125,-0.062890625,-0.963671875,0.013048267190069985,0.4665808718353938,12.490375742920012,0.3108367114933767,1182,0,3.771201656846587,1.6155106261515173,42.83834557532411,0.28881565672768933,0.12372330697774533,0.5233712450901935,-0.2740420342756804,-0.40759485391619954,0.2009765625,0.3037047083379698,0,0,1,1,0,0,0,0,,
42.23048863849985,1200,,,,-0.070703125,-0.0017578125,-0.9537109375,0.013000671086091039,0.4646312406025088,12.489886664914906,0.31498059051351995,1182,0,3.8020987822030214,1.609660662839029,42.336920886310835,0.2886553633286291,0.12220585161369624,0.5237422415399081,-0.27406207382819614,-0.40741076334816784,0.2015625,0.30461060537985085,0,0,1,1,0,0,0,0,,
42.477244138499955,1200,,,,-0.071484375,-0.0107421875,-0.9599609375,0.013011361596393522,0.465130755790598,12.490426220852399,0.3149352397271239,1183,0,3.799480832258149,1.6119788165939575,42.42665428677119,0.28854620451216373,0.12242017232779001,0.5237228458063509,-0.27411263412090514,-0.407457929208647,0.2044921875,0.3053925349235257,0.2,0,1,1,0,0,0,0,,
42.72707713849992,1200,,,,-0.06875,-0.021484375,-0.953125,0.01296959483289217,0.462318535625174,12.48985066211228,0.31395558159222625,1183,0,3.793432582169225,1.6063786984501065,42.347241687532616,0.2878009356492778,0.12187338772825075,0.5239404631582877,-0.2740372570739107,-0.40719239016775005,0.20390625,0.30605049050008637,0,0,1,1,0,0,0,0,,
42.97626613849989,1200,,,,-0.062890625,-0.0046875,-0.94453125,0.012848502602800585,0.46259334135639424,12.489581382563978,0.31073674382120514,1182,0,3.7471839831388385,1.5910228808873434,42.46001575744192,0.29075590291717246,0.12345408528866089,0.5246183082049558,-0.2738591276830433,-0.40721833822515974,0.2013671875,0.30635339509413895,0.2,0,1,1,0,0,0,0,,
43.227582638499925,1200,,,,-0.0751953125,-0.0037109375,-0.9583984375,0.012802185440608085,0.46498063858954464,12.489953376270325,0.3114126951945492,1182,0,3.7648983800796123,1.585227147588508,42.10610408635039,0.2933209338117982,0.1235049892386187,0.5250071730092827,-0.2739026030772077,-0.4074437546507371,0.200390625,0.3067075995955463,0.1,0,1,1,0,0,0,0,,
43.477485638499864,1200,,,,-0.060546875,-0.01328125,-0.957421875,0.012731612254916725,0.4708123523094036,12.489851056079186,0.31113321454478565,1183,0,3.7667031730707814,1.5771579281815407,41.871212789925764,0.29852166472448677,0.12499382781920162,0.5252468676213631,-0.27366499018467066,-0.40799440416495214,0.204296875,0.3070601484428022,0.1,0,1,1,0,0,0,0,,
43.7288336385,1200,,,,-0.0681640625,-0.0193359375,-0.962890625,0.012949665991166601,0.4760621962007255,12.490027033007973,0.3130697983955612,1183,0,3.7797725921665184,1.6042222965180055,42.443187062469,0.2967707858141366,0.12595335828513676,0.5236861578137284,-0.273692849772527,-0.4084901116237421,0.201953125,0.3075260866276076,0,0,1,1,0,0,0,0,,
43.97709663849999,1200,,,,-0.0744140625,0.0130859375,-0.96015625,0.01308964278316024,0.4719274359905939,12.489872463552997,0.31403192340233843,1182,0,3.7988077354426495,1.6208645189299618,42.66960976416162,0.2911603715309788,0.12423248511819689,0.5228397851518816,-0.2738446594032551,-0.4080996940191618,0.2009765625,0.30807416929155446,0.1,0,1,1,0,0,0,0,,
44.22960813849983,1200,,,,-0.0638671875,-0.0224609375,-0.9609375,0.013056241386490686,0.4684292886984038,12.489900486087716,0.3127561338923348,1182,0,3.786135792639404,1.6166128586522373,42.698408148503006,0.28976124734603925,0.1237231046830922,0.5225357023985431,-0.27337261324607864,-0.40776938749184766,0.2,0.3083684419071559,0.2,0,1,1,0,0,0,0,,
44.47806213849992,1200,,,,-0.0712890625,-0.010546875,-0.9638671875,0.013075526157342417,0.4767651625232276,12.490274701938684,0.3125015561516757,1182,0,3.7761374149802713,1.6191037499026433,42.877677638901005,0.2944639428417409,0.12626056076831355,0.5221563052785855,-0.27316720442763676,-0.4085564880068414,0.201953125,0.3086983391480071,0,0,1,1,0,0,0,0,,
44.72783913849984,1200,,,,-0.0546875,-0.0541015625,-0.9552734375,0.01316008799598703,0.47804333827477147,12.49017311644018,0.3148517008486877,1182,0,3.7934380226554234,1.6293452494288658,42.95201628882024,0.29339734403381795,0.12601965819230368,0.5217865271346258,-0.2733808017982214,-0.4086771775486261,0.2060546875,0.30917047714541174,0.1,0,1,1,0,0,0,0,,
44.978727638499855,1200,,,,-0.069921875,-0.0056640625,-0.9572265625,0.013167883126609626,0.4746723071268099,12.49019927535836,0.31499323139548396,1182,0,3.7955362528973025,1.6302795006385942,42.95295623928272,0.2911654862555621,0.12506257394141818,0.5218680442807628,-0.2735000536281774,-0.4083588737440845,0.20625,0.30964777727625264,0.1,0,1,1,0,0,0,0,,
45.2280176384998,1200,,,,-0.076953125,0.01796875,-0.959375,0.013033662846188515,0.47238504754861566,12.489936422828976,0.3123259644760485,1182,0,3.7778539370492226,1.6134019803408726,42.70767752565305,0.29279063308978304,0.12504494608639372,0.5233423692055534,-0.27392527524774435,-0.40814290320161295,0.20390625,0.30980890306480474,0,0,1,1,0,0,0,0,,
45.47808313849991,1200,,,,-0.066015625,-0.0263671875,-0.9638671875,0.012938438412628742,0.4700292269859299,12.489946818988884,0.31168067833091084,1182,0,3.7659624907857188,1.6015438491864546,42.52803793122651,0.29349082319949216,0.12481355844068535,0.5238135538690104,-0.27373192338510216,-0.40792045890637885,0.2015625,0.3099245764717512,0,0,1,1,0,0,0,0,,
45.72780263849981,1200,,,,-0.0560546875,-0.0369140625,-0.953515625,0.012754283045219889,0.463431474536099,12.489910407719725,0.3117070056906296,1182,0,3.7761059989399977,1.5786818070698032,41.80796495202928,0.2935552316264855,0.1227326926343152,0.525049246129524,-0.2736374367774044,-0.40729747750572487,0.20390625,0.3100421834228334,0,0,1,1,0,0,0,0,,
45.978597138499936,1200,,,,-0.0916015625,0.03359375,-0.9517578125,0.01271661874275353,0.45801720741198604,12.489755013034843,0.3123173393741111,1182,0,3.795221235126617,1.5734660645995926,41.45955048385902,0.29108883564216387,0.12068375667250507,0.5254530718996894,-0.2737482406303362,-0.4067862446666418,0.205859375,0.31022510033621703,0,0,1,1,0,0,0,0,,
46.22835663849987,1200,,,,-0.0599609375,-0.0478515625,-0.962890625,0.012682200890284556,0.46334149563809945,12.489794552935592,0.3122604940722816,1182,0,3.768700615545631,1.5696323211824574,41.64999700816564,0.2951905724152016,0.12294592361491351,0.5257353728740742,-0.2737748102710081,-0.40728898140340347,0.2037109375,0.3103701676774635,0.1,0,1,1,0,0,0,0,,
46.479503138499794,1200,,,,-0.0529296875,-0.0341796875,-0.960546875,0.012579845308508026,0.46599181957270835,12.489682738790222,0.31215245838069355,1182,0,3.779625487452619,1.5568530788645247,41.19124550744508,0.2993165414129612,0.12329226994665177,0.5263317519812463,-0.2736444105864662,-0.4075392336718123,0.207421875,0.31053753240950666,0.2,0,1,1,0,0,0,0,,
46.72853763849996,1200,,,,-0.1072265625,0.0541015625,-0.9646484375,0.012619039256401784,0.4661099804462311,12.489661588911188,0.310173507970955,1181,0,3.7699954029271625,1.5612681384169285,41.4133370402832,0.2985485149963572,0.12363827545324094,0.5258274608970785,-0.2734567074800555,-0.40755039080858707,0.2060546875,0.3104759672211238,0.1,0,1,1,0,0,0,0,,
46.97896813849983,1120,,,,-0.0443359375,-0.0330078125,-0.9421875,0.012710598325622907,0.4677990288017378,12.49044601599019,0.30299937861555065,1153,0,3.6574370375072185,1.5347129749884674,41.97617305232951,0.30681903535706073,0.12868372663050703,0.5252436185444342,-0.2735299727485683,-0.40770987628766314,0.2126953125,0.31012068588718106,0.1,0,1,1,0,0,0,0,,
47.229246638499845,1000,,,,-0.0724609375,-0.03984375,-0.964453125,0.008512215313871778,0.4616330683029239,12.496492782626312,0.14783458047852438,1052,0,1.7062444691874354,0.945971809065956,53.395511861752865,0.2145762374554239,0.29243015436612385,0.5360902195287195,-0.25645524800402164,-0.4071276660975814,0.201953125,0.2966975835883444,0,0,1,1,0,0,0,0,,
47.47891363849989,1000,,,,-0.0826171875,-0.003515625,-0.96640625,0.0007388855961743308,0.38566406403018644,12.499448244868486,0.07446355643965656,916,0,0.7916322875044914,0.11360406460460659,13.249861058973803,0,0.4893440941213568,0.5632033491339354,-0.23089625242497971,-0.39995442383849567,0.18046875,0.2785138064708636,0.1,0,1,1,0,0,0,0,,
47.72824913849989,1000,,,,-0.0701171875,-0.0255859375,-0.9546875,-0.001482243772910397,0.27420367470754353,12.500254759618572,0.05920026944447695,780,0,0.6103674489428107,0.11982293809307495,19.96083085143259,0,0.4487203499115357,0.5717492466567484,-0.22428093395644727,-0.38942996873266145,0.173046875,0.2616717357583634,0.1,0,1,1,0,0,0,0,,
47.97969463849989,1000,,,,-0.08046875,-0.0056640625,-0.967578125,-0.0024953539427752,0.18923829374922924,12.499829293247283,0.057942990099744664,664,0,0.605266306360291,0.17286561049697832,28.576315205798085,0.2670826341452929,0.3138976923834853,0.5760020947354023,-0.22156914531464297,-0.3814072591146518,0.18515625,0.24614630398228296,0.2,0,1,1,0,0,0,0,,
48.228749138499886,1000,,,,-0.0634765625,-0.022265625,-0.9587890625,-0.002909875677772363,0.12912597986688604,12.500472871789624,0.056540684690293955,565,0,0.5860079917978159,0.17192579453449797,29.363612953127028,0.750731370083294,0.22057643218451095,0.5769678560582502,-0.21979272536620514,-0.3757312575089943,0.171484375,0.23185273496430972,0,0,1,1,0,0,0,0,,
48.481815138499904,1000,,,,-0.0779296875,-0.0072265625,-0.9578125,-0.002986033244171472,0.0997114233482,12.500500808440382,0.05327197940367819,484,0,0.5420656809606631,0.15120696975594722,27.906011776414726,0.6583483013467251,0.1839865188550948,0.5771973631399219,-0.21951120185131892,-0.37295383871994975,0.156640625,0.2181781956690206,0,0,1,1,0,0,0,0,,
48.73133363849986,1000,,,,-0.052734375,-0.01953125,-0.959765625,-0.0029785338103137265,0.06245888153490619,12.501062192426684,0.05126374583014972,469,0,0.49644286436844337,0.14640791130433897,29.545886396201276,0.42604232622121,0.12521995474618075,0.577076839606004,-0.21945458964741155,-0.3694363316820252,0.15546875,0.20559263022709384,0,0,1,1,0,0,0,0,,
48.97976513849995,1000,,,,-0.0771484375,-0.0076171875,-0.958984375,-0.002882875467553347,0.03948126675968483,12.500607625593918,0.04907340443013446,183,0,0.47095304335035737,0.05603989824809811,12.586538161688356,0.12461067013386465,0.03911468831654454,0.5767546536329636,-0.2197789938156959,-0.36726671001992106,0.1599609375,0.19377199207456564,0,0,1,1,0,0,0,0,,
49.23340513849985,1000,,,,-0.0701171875,-0.015234375,-0.9501953125,-0.002727209860896242,0.029176045293132905,12.500330246048748,0.05203937819561224,0,0,0.5301247319181219,0,0,0,0,0.576123755820735,-0.22021509058909663,-0.3662936572489815,0.1453125,0.18292649125642468,0.1,0,1,1,0,0,0,0,,
49.48285363849983,1000,,,,-0.067578125,-0.011328125,-0.96640625,-0.0025388960036543456,0.021640464045071497,12.500814750894465,0.052622116821347674,0,0,0.5427666194496944,0,0,0,0,0.5753154074727882,-0.22070378377532252,-0.3655821229808566,0.134375,0.17313558750738609,0,0,1,1,0,0,0,0,,
49.727179638499805,1000,,,,-0.0689453125,-0.0134765625,-0.96171875,-0.0023062263494483624,0.013889227157631853,12.500890250360161,0.051359756415405335,0,0,0.5090494593637847,0,0,0,0,0.5736004000768833,-0.2206907207061229,-0.36485022580077053,0.12421875,0.16416217171326455,0,0,1,1,0,0,0,0,,
49.97797163849985,1000,,,,-0.0646484375,-0.026171875,-0.9591796875,-0.001162065492966996,0.005659625814491967,12.500967294584937,0.047641811818512445,0,0,0.48238754331785866,0,0,0,0,0.5645815964179276,-0.22012249329923234,-0.3640731598816477,0.110546875,0.15528712021279772,0,0,1,1,0,0,0,0,,
50.22887963849986,1000,,,,-0.063671875,-0.0314453125,-0.95546875,-0.0008869737282851253,-0.004657796819464609,12.500969611290966,0.049126510971293745,0,0,0.4962107618334284,0,0,0,0,0.560855712231388,-0.21864452169726775,-0.3630989550365105,0.09765625,0.14719022122088626,0,0,1,1,0,0,0,0,,
50.4794386384999,1000,,,,-0.0625,-0.037890625,-0.9509765625,-0.0004150047205462762,-0.004900397732377436,12.500546970492257,0.05124660718162821,0,0,0.5209803725312161,0,0,0,0,0.5705474497622043,-0.22996095759509383,-0.36307604786354897,0.0849609375,0.14001944675887062,0,0,1,1,0,0,0,0,,
50.73055613849997,1000,,,,-0.0625,-0.0380859375,-0.9501953125,-0.00026411093102224694,-0.003364750072057725,12.50078453339405,0.04837488792630943,0,0,0.4863999682633269,0,0,0,0,0.5739872961900743,-0.23387287766718606,-0.3632210487464422,0.0765625,0.1330231552814493,0.1,0,1,1,0,0,0,0,,
50.9801091384999,1000,,,,-0.0625,-0.0384765625,-0.9509765625,0.0012625139336108623,0.0000826524870517571,12.500402902565607,0.046900982440458185,0,0,0.46497714508695054,0,0,0,0,0.5639858754344621,-0.2348648469168945,-0.3635465637898184,0.0703125,0.12649172918163185,0,0,1,1,0,0,0,0,,
51.228816638499914,1000,,,,-0.0625,-0.037890625,-0.9505859375,0.0017313481599413837,-0.004910562247588581,12.500590312365055,0.045886818044925136,0,0,0.450712715339234,0,0,0,0,0.561009181641896,-0.23525112442450075,-0.3630750880967236,0.06640625,0.12043930343259687,0.2,0,1,1,0,0,0,0,,
51.4778531384999,1000,,,,-0.0625,-0.0384765625,-0.95078125,0.0017338752956137377,-0.006734552232187535,12.50068765788424,0.04835657599356435,0,0,0.4672140672513631,0,0,0,0,0.5608304048208772,-0.23511305713297542,-0.36290286098695784,0.063671875,0.11508873495752954,0.1,0,1,1,0,0,0,0,,
51.72762913849992,1000,,,,-0.0625,-0.0373046875,-0.9505859375,0.0016870306624841365,-0.007060941834950032,12.500336712264595,0.04555699486176609,0,0,0.4239251404385076,0,0,0,0,0.5611392495627038,-0.23508429800366515,-0.36287204221140745,0.0619140625,0.10976532305824802,0,0,1,1,0,0,0,0,,
51.98276513849991,1000,,,,-0.0625,-0.037109375,-0.951171875,0.0016630890932711583,-0.0063287856361632895,12.500545031721428,0.04192553645884371,0,0,0.3938825125342691,0,0,0,0,0.5613769678537868,-0.23513838826533853,-0.36294117479825216,0.060546875,0.10449926216493151,0,0,1,1,0,0,0,0,,
52.23125013849985,1000,,,,-0.0625,-0.037890625,-0.951171875,0.0016645098256942614,-0.004835297590168156,12.50088567058031,0.04241853836673326,0,0,0.40120160051300724,0,0,0,0,0.5613810438854713,-0.2351508378872189,-0.3630821948322454,0.06015625,0.09983597204865371,0.1,0,1,1,0,0,0,0,,
52.47853363849996,1000,,,,-0.0625,-0.03828125,-0.951171875,0.0016414483458237106,-0.01198082302398425,12.500608066140373,0.0458117863623196,0,0,0.43753285242369244,0,0,0,0,0.561575134649372,-0.23517289231416338,-0.36240749091193064,0.05859375,0.09583983128551565,0.1,0,1,1,0,0,0,0,,
52.72912863849994,1000,,,,-0.0625,-0.0384765625,-0.95078125,0.0016546982627256943,-0.014611984141219602,12.500743107026096,0.04547826888712464,0,0,0.4394696670303184,0,0,0,0,0.5616976670928107,-0.23536178916169298,-0.36215904805951604,0.05859375,0.09203679191815761,0,0,1,1,0,0,0,0,,
52.97898363849977,1000,,,,-0.0625,-0.03828125,-0.9505859375,0.001613901769050278,-0.013491252242548834,12.500731919042826,0.04349731867418201,0,0,0.404546582329336,0,0,0,0,0.5618464498624867,-0.2352332346191847,-0.3622648712369239,0.05859375,0.0883459370550275,0.1,0,1,1,0,0,0,0,,
53.233780138499945,1000,,,,-0.0625,-0.0384765625,-0.949609375,0.0017153494904670653,-0.005555808789251528,12.501053903047804,0.04365829144266251,0,0,0.414777505362824,0,0,0,0,0.5612700351239813,-0.23537511597932337,-0.3630141618044219,0.05859375,0.08491985584936068,0,0,1,1,0,0,0,0,,
53.481504138499915,1000,,,,-0.0625,-0.0375,-0.9505859375,0.0017044824061988872,-0.002866418130585453,12.501034634548818,0.0428817479062636,0,0,0.4072705871933076,0,0,0,0,0.561218208722982,-0.23526210604042413,-0.36326810288089934,0.05859375,0.0817309170600105,0,0,1,1,0,0,0,0,,
53.731150638499855,1000,,,,-0.0625,-0.0380859375,-0.95078125,0.001719666080068482,-0.005286226900080012,12.500364608776103,0.046436271533656134,0,0,0.4565614313800716,0,0,0,0,0.5613023160948973,-0.23543007722079148,-0.363039616609552,0.05859375,0.07909810896595855,0,0,1,1,0,0,0,0,,
53.9786166385,1000,,,,-0.0625,-0.0376953125,-0.9505859375,0.001709751851825365,-0.0035274370723707275,12.500535301265744,0.044520483112990686,0,0,0.4283568796027145,0,0,0,0,0.5613978292357641,-0.23544995588215553,-0.3632056873069075,0.05859375,0.07655364997062113,0,0,1,1,0,0,0,0,,
54.228218638499925,1000,,,,-0.0625,-0.0380859375,-0.95078125,0.0017391621482412763,-0.004393816037601005,12.500449921008691,0.04687465879322954,0,0,0.45474897007541193,0,0,0,0,0.5613215568658907,-0.23556931683264365,-0.36312388096673937,0.05859375,0.07427067510847793,0.1,0,1,1,0,0,0,0,,
54.47787063849982,1000,,,,-0.0625,-0.0376953125,-0.9513671875,0.001721651916559026,-0.004574343063177996,12.500756342207513,0.04301004305451578,0,0,0.3968045328362151,0,0,0,0,0.5612304753330266,-0.23538070063854954,-0.363106835013575,0.05859375,0.07192471046055168,0.1,0,1,1,0,0,0,0,,
54.72893263849983,1000,,,,-0.0625,-0.03828125,-0.9501953125,0.0017882535598923745,-0.0005760118591316868,12.501661936128652,0.043489846687752694,0,0,0.40221000561279385,0,0,0,0,0.5608442040165655,-0.23546708839390051,-0.3634843705444569,0.05859375,0.06968413057310022,0,0,1,1,0,0,0,0,,
54.980748138499905,1000,,,,-0.0625,-0.0384765625,-0.9505859375,0.0019017859658677246,-0.00025311737155882724,12.500951864184081,0.04603949559010797,0,0,0.45649379428466197,0,0,0,0,0.5605723064425497,-0.23594726570234975,-0.3635148592997809,0.05859375,0.06799812005377714,0,0,1,1,0,0,0,0,,
55.22814813850001,1000,,,,-0.0625,-0.037890625,-0.9513671875,0.001867062342067205,-0.0018265799664368562,12.500965170641924,0.042272990732776836,0,0,0.39705425019497803,0,0,0,0,0.5606652875063505,-0.23580886342977606,-0.3633662878068844,0.05859375,0.06601543679883518,0,0,1,1,0,0,0,0,,
55.47957413849984,1000,,,,-0.0625,-0.037109375,-0.9513671875,0.0017895100265999605,-0.002266909785662795,12.50130265019287,0.04236308710943234,0,0,0.3856587534355627,0,0,0,0,0.561030041832599,-0.23563504317926257,-0.3633247104228256,0.05859375,0.06421975602836909,0.1,0,1,1,0,0,0,0,,
55.72884463849986,1000,,,,-0.0625,-0.0380859375,-0.951171875,0.0017290167126863304,-0.00006786467454187282,12.501338304715203,0.04541818763779336,0,0,0.44421922407114484,0,0,0,0,0.5613245034504004,-0.23550801963729473,-0.36353235146632407,0.05859375,0.06278577037434016,0,0,1,1,0,0,0,0,,
55.9785361384999,1000,,,,-0.0625,-0.0375,-0.951171875,0.0016042125227664784,0.0004407676754553694,12.501020167409044,0.04916820405306852,0,0,0.4812267986840918,0,0,0,0,0.562138334492225,-0.23542364990013134,-0.36358037819909844,0.05859375,0.061859089758460606,0,0,1,1,0,0,0,0,,
56.22681063849991,1000,,,,-0.0625,-0.0380859375,-0.949609375,0.0016006645775391837,-0.003591519666137636,12.500706515441669,0.0425881238674156,0,0,0.38697472635784186,0,0,0,0,0.5621243264145871,-0.23538926211982353,-0.3631996364184685,0.05859375,0.060359584551778665,0,0,1,1,0,0,0,0,,
56.48327563849999,1000,,,,-0.0625,-0.03828125,-0.9505859375,0.0016243103976939766,0.0005006317255432359,12.501005333029912,0.04066998102638167,0,0,0.3651006980708356,0,0,0,0,0.5620314347541612,-0.23545804006480542,-0.3635860307588234,0.05859375,0.05878470646872401,0.1,0,1,1,0,0,0,0,,
56.728929138499915,1000,,,,-0.0625,-0.0380859375,-0.95078125,0.0017228531907265636,0.003286579942444506,12.500724005910776,0.04300617292571939,0,0,0.3965568367756951,0,0,0,0,0.5617780519306761,-0.23585984848148364,-0.36384908911627334,0.05859375,0.05763565543020514,0,0,1,1,0,0,0,0,,
56.97973563849981,1000,,,,-0.0625,-0.037109375,-0.95078125,0.0017316821199925096,-0.002329607288215127,12.500490494311725,0.04509139324892711,0,0,0.42464667442626736,0,0,0,0,0.561850631368781,-0.23597790752913533,-0.3633187903192367,0.05859375,0.056678108907464386,0,0,1,1,0,0,0,0,,
57.23528613849976,1000,,,,-0.0625,-0.037890625,-0.95078125,0.0016503980716941562,-0.0064608334443081806,12.500690105224951,0.04845789306147796,0,0,0.47095244162541994,0,0,0,0,0.5619398642619927,-0.2355433199364286,-0.36292870641161645,0.05859375,0.056114648192177076,0,0,1,1,0,0,0,0,,
57.493035138499884,1000,,,,-0.0625,-0.0376953125,-0.95078125,0.0016401988720193528,-0.0051114816179681785,12.50121539311186,0.0465604027496305,0,0,0.45830195929515616,0,0,0,0,0.5620484797487835,-0.23557268969782558,-0.36305611663155724,0.05859375,0.05533628358923372,0.2,0,1,1,0,0,0,0,,
57.75429313849994,1000,,,,-0.0625,-0.037890625,-0.950390625,0.00168990309682409,-0.004299539586150156,12.500886142554572,0.046454754014370644,0,0,0.4542174099670494,0,0,0,0,0.5619026476135118,-0.23575983268602707,-0.3631327828581364,0.05859375,0.05467856030048638,0,0,1,1,0,0,0,0,,
58.0035841384998,1000,,,,-0.0625,-0.0376953125,-0.95078125,0.0017039882303294036,-0.0068372200834813926,12.500446099333143,0.0432934723885455,0,0,0.41537245580221605,0,0,0,0,0.561802699087277,-0.23576237739182532,-0.36289316675209726,0.05859375,0.05377395793847051,0,0,1,1,0,0,0,0,,
58.252942638499896,1000,,,,-0.0625,-0.0380859375,-0.95078125,0.001721616376936009,-0.002246879786580296,12.500987998392905,0.04520181684747447,0,0,0.4268441519550709,0,0,0,0,0.5616065336048232,-0.2357043497278878,-0.36332660172095765,0.05859375,0.053132748075628976,0,0,1,1,0,0,0,0,,
58.5037696384999,1000,,,,-0.0625,-0.037890625,-0.9501953125,0.0017236278489405573,-0.006709048527984517,12.500876172089175,0.0460425579790387,0,0,0.4323645467677538,0,0,0,0,0.5615119496933205,-0.2356355473587121,-0.3629052691302593,0.05859375,0.05259508911493951,0,0,1,1,0,0,0,0,,
58.753525638499866,1000,,,,-0.0625,-0.0375,-0.9505859375,0.001691157344156706,-0.011836859256602964,12.500575468126275,0.046315496785175256,0,0,0.44454386844071686,0,0,0,0,0.5616313025927351,-0.23553403388573266,-0.3624210844424745,0.05859375,0.05211924389216464,0.2,0,1,1,0,0,0,0,,
59.00320563849988,1000,,,,-0.0625,-0.037890625,-0.9505859375,0.0016611933741251452,-0.010595504487114814,12.501354847251005,0.04645668399498497,0,0,0.4418855031168144,0,0,0,0,0.5616604437570507,-0.2353705984186623,-0.3625382972265073,0.05859375,0.05171660908294373,0,0,1,1,0,0,0,0,,
59.2530941384999,1000,,,,-0.0625,-0.03828125,-0.950390625,0.0017353927050118077,-0.009242595558271288,12.501474703242708,0.04635098612690194,0,0,0.4539922777765121,0,0,0,0,0.5613879887256723,-0.2356028126867724,-0.36266604331971963,0.05859375,0.051291172450880586,0.1,0,1,1,0,0,0,0,,
59.5033441384998,1000,,,,-0.0625,-0.0380859375,-0.95078125,0.0017211687769653795,-0.0027189896366727083,12.501648199936703,0.043641358679314186,0,0,0.42545456483683164,0,0,0,0,0.5613704678113902,-0.23549822647013546,-0.3632820235622726,0.05859375,0.05072878462120216,0.1,0,1,1,0,0,0,0,,
59.75302263849987,1000,,,,-0.0625,-0.03828125,-0.95078125,0.001681038157039032,-0.012119408801286757,12.501350879187456,0.03806388453649579,0,0,0.37111201768518676,0,0,0,0,0.5614106971370555,-0.23528037209856012,-0.36239440518882854,0.05859375,0.04967123689257606,0.2,0,1,1,0,0,0,0,,
60.003591138499885,1000,,,,-0.0625,-0.037890625,-0.950390625,0.0016357046739017135,-0.01215503962589608,12.500752863952144,0.03848157776394771,0,0,0.3665970330693177,0,0,0,0,0.5617103689828543,-0.23525322112134095,-0.36239104080964185,0.05859375,0.048843538208692736,0.1,0,1,1,0,0,0,0,,
60.254293638499874,1000,,,,-0.0625,-0.037890625,-0.9505859375,0.0016211542908406563,-0.011991696273774874,12.500731080628709,0.04290860825608255,0,0,0.4084207815872339,0,0,0,0,0.5618940432210306,-0.23531985617788695,-0.3624064642240644,0.05859375,0.04838718565372157,0,0,1,1,0,0,0,0,,
60.50279363849984,1000,,,,-0.0625,-0.0384765625,-0.95078125,0.0016157128214173131,-0.012436638986772604,12.500521043628364,0.04536333191700612,0,0,0.4261172610005456,0,0,0,0,0.5618700988234009,-0.23526499692238545,-0.36236445127546385,0.05859375,0.048220163055783964,0.1,0,1,1,0,0,0,0,,
60.75500713849995,1000,,,,-0.0625,-0.0369140625,-0.951171875,0.0016860512481681345,-0.005638114662627082,12.500790292275136,0.042660434431826336,0,0,0.4008903148249211,0,0,0,0,0.5615482871694404,-0.23543041104785506,-0.36300639021422243,0.05859375,0.04777755953895148,0.1,0,1,1,0,0,0,0,,
61.00267213849988,1000,,,,-0.0625,-0.0384765625,-0.95078125,0.0017111418495518286,-0.0015078368970208316,12.501139642392523,0.04377758982891556,0,0,0.41197944378927226,0,0,0,0,0.561605271822377,-0.23563735752086368,-0.363396384571706,0.05859375,0.04747250521018707,0.2,0,1,1,0,0,0,0,,
61.25329913849994,1000,,,,-0.0625,-0.0380859375,-0.9505859375,0.0016925760764072632,-0.003954019935147193,12.501066988347661,0.042146505200736074,0,0,0.397723652719343,0,0,0,0,0.5617045568822407,-0.23560604932063822,-0.36316540795551194,0.05859375,0.04708164708140158,0.1,0,1,1,0,0,0,0,,
61.5064466384998,1000,,,,-0.0625,-0.0375,-0.9509765625,0.0016463755957050962,-0.01411149357223784,12.50099125809928,0.04540661633570207,0,0,0.44846235335289986,0,0,0,0,0.5618605347197485,-0.23544968960616694,-0.3622063060186543,0.05859375,0.04695990181442934,0.1,0,1,1,0,0,0,0,,
61.753931138499965,1000,,,,-0.0625,-0.0380859375,-0.9501953125,0.0016708653248255583,-0.016702278057488123,12.500716627844726,0.04585103428589667,0,0,0.4511083589750891,0,0,0,0,0.561695545639585,-0.23546168494171246,-0.3619616756601062,0.05859375,0.04690341351168981,0,0,1,1,0,0,0,0,,
62.00495563849997,1150,,,,-0.0626953125,-0.0365234375,-0.948828125,0.0018606803203257433,-0.008095847585323532,12.494849668866587,0.13276846114317803,0,0,1.5078365599518542,0,0,0,0,0.5618558253299755,-0.23679403488529047,-0.3627743230200898,0.0609375,0.05175811696097145,0,0,1,1,0,0,0,0,,
62.25759163849982,1300,,,,-0.0603515625,-0.0173828125,-0.951953125,0.030051448886857436,0.02404405605448897,12.466405365406287,0.8968321717377229,688,0,11.01335127967617,3.2380744317069854,30.5050339851309,0.7361954784979998,0.002966387498947768,0.5070075341182971,-0.36693280139255446,-0.36580907801259116,0.12578125,0.12704098951705434,0,0,1,1,0,0,0,0,,
62.505329138499874,1300,,,,-0.077734375,-0.0142578125,-0.966015625,0.048437548860120576,0.25016872072962487,12.478442121229522,0.6507318425675372,1282,0,7.985400563973522,6.479815474559615,81.17975981215604,0.040258584013489106,0.03246791682105661,0.42164941007586815,-0.40910479789315257,-0.38716050963917875,0.1521484375,0.16375767472976763,0,0,1,1,0,0,0,0,,
62.757727138499924,1300,,,,-0.05625,-0.030859375,-0.9537109375,0.03145189297965078,0.5022592998966701,12.482309111563808,0.5305237122398814,1388,0,6.499900232102673,4.564407605221388,70.05793817768858,0.11226537672874055,0.07758700119468447,0.46416571622211605,-0.3388477050925157,-0.4109637279768372,0.1462890625,0.1897340380513532,0.1,0,1,1,0,0,0,0,,
63.00482513849992,1300,,,,-0.06953125,-0.0158203125,-0.9564453125,0.024076326141191658,0.611760241263723,12.483029276098495,0.49255761724593167,1441,0,6.0448164064999705,3.631928565603804,60.074613798317955,0.16877081963051602,0.10126452134439812,0.486676373137534,-0.31182763776514966,-0.4213031655875222,0.133984375,0.21159230088035524,0,0,1,1,0,0,0,0,,
63.25321313849995,1300,,,,-0.069921875,-0.0142578125,-0.95703125,0.021810944569201303,0.6734123000993661,12.483723370467237,0.4819596326214414,1470,0,5.912833295555972,3.356257164834492,56.76089121401121,0.20083663764214066,0.11389490107385522,0.4927334264209778,-0.30279041771976367,-0.4271245549558989,0.13125,0.23168250783801922,0,0,1,1,0,0,0,0,,
63.50511363849989,1300,,,,-0.0662109375,-0.0109375,-0.95625,0.020547914230157026,0.718835796814064,12.48381743769094,0.4842940758593923,1485,0,5.937753198742437,3.1960286256569668,53.82780417003877,0.22498934943194326,0.12106204926050945,0.4974459298547801,-0.2989020052767183,-0.43141359032379106,0.1298828125,0.25088886914160097,0.1,0,1,1,0,0,0,0,,
63.755870638499836,1300,,,,-0.06953125,-0.0158203125,-0.9564453125,0.01996108668908967,0.7441455855408357,12.48401883566156,0.4816518673750088,1494,0,5.898989504019943,3.1231864219009493,52.94432414645435,0.23829260884933323,0.12614955428444619,0.5000815984767433,-0.29747961499159137,-0.43380342349063905,0.131640625,0.2683850904006498,0.1,0,1,1,0,0,0,0,,
64.00429213849986,1300,,,,-0.0669921875,-0.0251953125,-0.9623046875,0.019706119832997752,0.761727548340188,12.483716425541655,0.47769883952181014,1498,0,5.853453730622196,3.091852765341679,52.823049810131224,0.2463667839640354,0.13013881800900157,0.5008557271400859,-0.2965420714141709,-0.43546357001694097,0.1337890625,0.2840473079978218,0,0,1,1,0,0,0,0,,
64.25369763849977,1300,,,,-0.066796875,-0.0236328125,-0.958984375,0.019765420937090085,0.7668332249620303,12.483617129948588,0.47616319526581324,1501,0,5.824272398464563,3.1066696424842,53.340453076179315,0.24683503322774464,0.13166236573794776,0.5001836068338044,-0.2963363425642193,-0.43594566472985213,0.133984375,0.29849446118268796,0.1,0,1,1,0,0,0,0,,
64.51023713849983,1300,,,,-0.06328125,-0.0359375,-0.963671875,0.019659790852632936,0.7673947540017346,12.484431782899895,0.47489843589098024,1502,0,5.814165687418933,3.0931112818047786,53.199715487686845,0.24809885949507682,0.1319879026172476,0.5006630059615522,-0.29608459309301294,-0.43599868614135906,0.133203125,0.3121800611334188,0.2,0,1,1,0,0,0,0,,
64.76024163849998,1300,,,,-0.0630859375,-0.037109375,-0.96015625,0.01950418720549373,0.7661191210006858,12.484042640714296,0.47667662470818417,1503,0,5.8406701542782375,3.069963985305138,52.56539219553359,0.2495557761324532,0.13117657128636812,0.5010451119471857,-0.29543461915737873,-0.43587823669440623,0.134375,0.32455247045490776,0.1,0,1,1,0,0,0,0,,
65.00622313849992,1300,,,,-0.07109375,-0.009765625,-0.95625,0.01943326006649803,0.7649428520084147,12.484082526315294,0.4818711383149129,1504,0,5.908508409440946,3.0616027302976243,51.81760104580873,0.24985321210949807,0.1294657668198222,0.5016147071239285,-0.2954788994946628,-0.43576716952268024,0.1318359375,0.33634526327898034,0.1,0,1,1,0,0,0,0,,
65.25578463849989,1300,,,,-0.0619140625,-0.01796875,-0.9546875,0.019641377102435124,0.7641050767049014,12.484741933026106,0.4780161574106609,1505,0,5.842661566122391,3.0964373086673276,52.99751090428364,0.24677067527427618,0.13078121998369038,0.5006634910572275,-0.29596915191492135,-0.43568806403395755,0.1318359375,0.3469940847531932,0,0,1,1,0,0,0,0,,
65.5067116385,1300,,,,-0.06875,-0.0140625,-0.9623046875,0.019621520575493667,0.7683980610770424,12.484312764181315,0.4775111084566257,1505,0,5.835267836412717,3.0929020881020137,53.004191552072584,0.24844358428460103,0.1316830522630969,0.5008545802629303,-0.29600878681090953,-0.4360934216822594,0.1349609375,0.35690121793409374,0.1,0,1,1,0,0,0,0,,
65.75489763849987,1300,,,,-0.074609375,-0.0015625,-0.961328125,0.01941542251850217,0.7745381541993297,12.484364945217054,0.47751597216498964,1505,0,5.855857347427564,3.059836319363211,52.252624702616835,0.25313568483516674,0.1322683091364978,0.5023933573146413,-0.2960372629741232,-0.4366731893899075,0.1353515625,0.36593595150940855,0.1,0,1,1,0,0,0,0,,
66.0044301384999,1300,,,,-0.072265625,-0.0263671875,-0.96171875,0.019588636361593154,0.7721671885193071,12.484296607689442,0.4787204765820906,1505,0,5.870449993943284,3.086208812459245,52.57187964319233,0.25020401772556483,0.1315358763349883,0.501274486624712,-0.2961635159774289,-0.43644931504307893,0.1337890625,0.3744286320736364,0,0,1,1,0,0,0,0,,
66.25425613849993,1300,,,,-0.0740234375,0.0056640625,-0.9599609375,0.019493861105632858,0.7739902447762882,12.484495197298852,0.4825125976192111,1505,0,5.901364148284263,3.0732519055665106,52.07711838760704,0.25185080614312944,0.1311560957445028,0.5018495016798941,-0.2960624121903861,-0.4366214539872241,0.130859375,0.3826534604795932,0.1,0,1,1,0,0,0,0,,
66.50634363849993,1300,,,,-0.0646484375,-0.025,-0.9673828125,0.019491432671842914,0.7765475638360736,12.484268286524253,0.4770394256901608,1505,0,5.842851510761302,3.0727755549315976,52.5910965291956,0.2527201723456753,0.13290657546191126,0.5016852792160271,-0.29590569920296195,-0.4368629244306665,0.128515625,0.38979453256409047,0,0,1,1,0,0,0,0,,
66.7534551384998,1300,,,,-0.0662109375,0.0025390625,-0.95859375,0.019403865632057902,0.772454346379981,12.484050269366223,0.47667876168846723,1506,0,5.833620943746313,3.059307903932948,52.44272139982328,0.2524990890476642,0.13241460616544645,0.502081402950486,-0.2956958827810229,-0.4364764294290174,0.129296875,0.3962551893623175,0.1,0,1,1,0,0,0,0,,
67.0060711385,1300,,,,-0.0666015625,-0.0244140625,-0.9669921875,0.019241863755779298,0.779866101327303,12.48411445142134,0.4780289621284314,1505,0,5.854699005760791,3.0330707866081035,51.80584936724866,0.2571217141797117,0.13320374066336324,0.5032957593293633,-0.29572241040389136,-0.4371762716121695,0.1298828125,0.40249103448582363,0,0,1,1,0,0,0,0,,
67.25569413849982,1300,,,,-0.0677734375,0.0025390625,-0.959765625,0.019339137683185993,0.7809012556130517,12.484636899125219,0.47912067958518867,1505,0,5.859817322247159,3.048839323450777,52.03078068535136,0.2561326236926474,0.13326711310356862,0.5025408356734815,-0.29568429308032357,-0.43727401427101154,0.1322265625,0.40832544039437213,0,0,1,1,0,0,0,0,,
67.50470513849994,1300,,,,-0.067578125,-0.030078125,-0.96484375,0.01941887488072718,0.7821279336308872,12.484601929061188,0.476023608347863,1506,0,5.831691674594383,3.0618008526440326,52.503390045633466,0.25544707762837493,0.13411853899898965,0.5023392934810847,-0.29601242376899184,-0.4373898412280721,0.1330078125,0.4133674459978973,0.1,0,1,1,0,0,0,0,,
67.7547506384999,1300,,,,-0.0681640625,0.0025390625,-0.9626953125,0.019425661854527758,0.7802684888436714,12.48422944442053,0.47361840375942615,1506,0,5.793425907289274,3.0641131411885607,52.89013562748562,0.2546499487149601,0.13468247237653044,0.5020485807671864,-0.29580475673538775,-0.4372142663596927,0.13203125,0.4178906244243629,0.1,0,1,1,0,0,0,0,,
68.00401713849996,1300,,,,-0.07890625,-0.0123046875,-0.956640625,0.01950903293934319,0.7807564716873654,12.484025065541102,0.4745325490883,1506,0,5.797012127001305,3.0757316470774207,53.05942702801131,0.2538553330508469,0.13468298515327712,0.501221171612902,-0.29561673630419016,-0.4372603432984338,0.1310546875,0.4221348553134723,0,0,1,1,0,0,0,0,,
68.25453663849984,1300,,,,-0.0705078125,-0.0095703125,-0.9587890625,0.019178531699044175,0.7872909244877528,12.483956901906389,0.4814373896528944,1505,0,5.887633945208951,3.0222253207911907,51.333002304457054,0.2604999317631473,0.13372289649624905,0.5032357861435274,-0.2952722756252049,-0.4378773477388167,0.132421875,0.426694385811709,0,0,1,1,0,0,0,0,,
68.51297063849992,1300,,,,-0.06484375,-0.032421875,-0.9638671875,0.01957508317015682,0.7722906067214939,12.484322299527237,0.481242289439315,1505,0,5.899936845738926,3.084759024333321,52.284655537413606,0.25037666835615985,0.13089795650874014,0.5009940142452788,-0.295836688305184,-0.4364609685940494,0.1318359375,0.43099958797775706,0,0,1,1,0,0,0,0,,
68.78241063850001,1300,,,,-0.0689453125,-0.0001953125,-0.95859375,0.019508854733189293,0.7715172296509274,12.48410778648153,0.47968375068677443,1505,0,5.883575330889135,3.0739568908156154,52.24828474152406,0.25099952523099356,0.131131193420784,0.5014912808416231,-0.29584824123327474,-0.436387943797451,0.1314453125,0.4348769655857003,0.1,0,1,1,0,0,0,0,,
69.02856163849995,1300,,,,-0.0654296875,-0.034765625,-0.962890625,0.019432001440242215,0.7760768506271959,12.48449236018485,0.48192194465378824,1504,0,5.89982187856969,3.0607326637199868,51.87836101279616,0.25356565810526654,0.1315426900762195,0.5016560390673714,-0.29550657655669693,-0.4368184781474203,0.13203125,0.43844101069010993,0.1,0,1,1,0,0,0,0,,
69.28027113849981,1300,,,,-0.0708984375,-0.0189453125,-0.956640625,0.019577178522081802,0.7714709841734387,12.484453676859713,0.4801887208466723,1504,0,5.881771217422075,3.0837588844134687,52.429486889789224,0.25017864066229895,0.13116664682290485,0.5011194154084319,-0.29595787147521857,-0.4363835771479656,0.1322265625,0.44162411115227396,0.1,0,1,1,0,0,0,0,,
69.52903963849988,1300,,,,-0.0619140625,0.0015625,-0.9580078125,0.019419642760726632,0.7788323010241924,12.484423841831653,0.47808643813664525,1504,0,5.853078409683855,3.058823005687899,52.26067618088119,0.2546226737601233,0.1330656575638579,0.5020989265153974,-0.29581024398848244,-0.4370786568008036,0.1333984375,0.44433469824112815,0.1,0,1,1,0,0,0,0,,
69.77970313850003,1300,,,,-0.0638671875,-0.0298828125,-0.9529296875,0.01968741488884523,0.778376531913165,12.485101141245107,0.4780394193704137,1504,0,5.861806187177929,3.1017579373975748,52.914733368469356,0.25095273667865897,0.13278911187532014,0.4998154646440705,-0.29552847489436135,-0.4370356215882336,0.1306640625,0.44683317838512104,0,0,1,1,0,0,0,0,,
70.03199213849982,1300,,,,-0.0673828125,-0.01171875,-0.9578125,0.019416512447007688,0.7831043227805529,12.484849507547636,0.47825467529142623,1505,0,5.861449751569375,3.059547804978512,52.19906776194891,0.2559575054191591,0.13360600832798347,0.5019815220560206,-0.2956894358610396,-0.4374820350902498,0.128515625,0.4492727450797247,0,0,1,1,0,0,0,0,,
70.2813966384999,1300,,,,-0.0638671875,-0.0134765625,-0.9541015625,0.01931492778779733,0.7830353212426301,12.484535735851686,0.4789232870689122,1505,0,5.865044169803219,3.044205739890388,51.90499275070086,0.25722141385377834,0.13351062061188124,0.5028017444555704,-0.29575666738787837,-0.4374755197389889,0.130859375,0.4515277188935083,0.1,0,1,1,0,0,0,0,,
70.53063413849995,1300,,,,-0.0650390625,-0.0244140625,-0.957421875,0.0193114567546655,0.7763882781055788,12.484678449270596,0.47824457080745686,1505,0,5.859358856718462,3.0441076438730894,51.95353832977331,0.2550466747032539,0.13250574059509654,0.5029848454805474,-0.29589251982961745,-0.43684788415017073,0.128515625,0.4535253727136448,0,0,1,1,0,0,0,0,,
70.78137663850003,1300,,,,-0.06484375,-0.01171875,-0.954296875,0.019321695276717062,0.7821733804810528,12.484738939031164,0.47709735755936766,1506,0,5.833446001493117,3.046881428296034,52.23185951931381,0.2567145619556715,0.13408606553093252,0.5026748132803667,-0.29568993134713634,-0.4373941324685493,0.1298828125,0.455299976521069,0,0,1,1,0,0,0,0,,
71.02871063849986,1300,,,,-0.06796875,-0.0197265625,-0.9580078125,0.019535558108399655,0.7795954663944207,12.484585917253565,0.47628345747162737,1506,0,5.831098570561376,3.081834930585683,52.85287360037886,0.25297103311899966,0.13369856333551297,0.5010055977814382,-0.29559797347756656,-0.43715071737520245,0.1287109375,0.4568418477160323,0.1,0,1,1,0,0,0,0,,
71.27934013849998,1300,,,,-0.0626953125,-0.020703125,-0.96015625,0.019449965655706464,0.7767710882587049,12.484317172809444,0.4759257320863224,1506,0,5.836043643089008,3.0681263359044353,52.57284792634418,0.25317440202323943,0.13309894078501525,0.5017091952355864,-0.2956653867422096,-0.43688403033892087,0.1291015625,0.45831497472590393,0.2,0,1,1,0,0,0,0,,
71.53067913849996,1300,,,,-0.07109375,-0.0037109375,-0.966796875,0.0194035206279894,0.7675654294974963,12.484328881542142,0.4751303439924331,1506,0,5.8112554381808845,3.0592109545490787,52.643325453424936,0.25090329200530515,0.13208426514390487,0.5023509607105863,-0.2959258632795053,-0.43601480188080455,0.13125,0.4595370205675395,0,0,1,1,0,0,0,0,,
71.78001263849991,1300,,,,-0.0599609375,-0.0259765625,-0.964453125,0.0194434640857473,0.7664917896135641,12.484002551564643,0.4804930290835968,1506,0,5.884682192031861,3.0656567606542384,52.09568858000326,0.2500254490822822,0.13025278886318287,0.5019691453221,-0.2958483558304824,-0.4359134252857024,0.1322265625,0.4612022356741449,0.1,0,1,1,0,0,0,0,,
72.02911213849993,1300,,,,-0.0689453125,-0.009375,-0.955859375,0.019346414560046935,0.7724781359909735,12.484970499152487,0.47780137946612555,1505,0,5.840786056172787,3.049506639335956,52.21111009909362,0.25331689051911205,0.13225956590388765,0.5025502501272672,-0.2957381870585979,-0.43647867572202237,0.1314453125,0.46245532432020686,0,0,1,1,0,0,0,0,,
72.28054563849983,1300,,,,-0.0587890625,-0.0400390625,-0.959765625,0.01928164253467221,0.7772621482762311,12.48440082118376,0.4784222777831241,1505,0,5.866095718357865,3.0389760240256605,51.80695890612964,0.25576584339208663,0.13250263423878525,0.503270183816664,-0.2959506713033892,-0.4369303978344961,0.1326171875,0.4636273838854419,0,0,1,1,0,0,0,0,,
72.53390163849993,1300,,,,-0.06640625,-0.0169921875,-0.9484375,0.019314499488293394,0.7793485340350167,12.484015293535439,0.47842092445744927,1505,0,5.854805314767633,3.0436617673729414,51.98597672229499,0.2560575712051028,0.13311335380797104,0.5029117776231722,-0.29584873641196197,-0.43712740121287313,0.131640625,0.46476364527041303,0,0,1,1,0,0,0,0,,
72.78291163849988,1300,,,,-0.061328125,-0.01328125,-0.9595703125,0.019259092363627325,0.7783089780771966,12.484260724346763,0.48167818437364646,1505,0,5.901278290196471,3.034291364300235,51.41798105301742,0.256504373450776,0.13188955167576286,0.5031926661256831,-0.2957420254980627,-0.4370292429337341,0.1310546875,0.4660579413575139,0.1,0,1,1,0,0,0,0,,
73.03012563849995,1300,,,,-0.0744140625,-0.0259765625,-0.958203125,0.019446240133980948,0.7741945778926757,12.484108122322654,0.4823080006425629,1504,0,5.912269852747324,3.0631015271998336,51.810119520537,0.25275565711286446,0.1309478782359646,0.5016795375188986,-0.2956164037137959,-0.4366407477894718,0.1291015625,0.467305191102363,0,0,1,1,0,0,0,0,,
73.27891663849988,1300,,,,-0.0677734375,-0.002734375,-0.952734375,0.01936234956147955,0.7730651893140342,12.484217799778971,0.47938542689320396,1505,0,5.862228991493678,3.051753498922163,52.058531509529985,0.2533270134059088,0.1318745857025556,0.5026323204195486,-0.29590913118303525,-0.43653410721998176,0.1294921875,0.4681852766332769,0,0,1,1,0,0,0,0,,
73.53369463849984,1300,,,,-0.0669921875,-0.0212890625,-0.9646484375,0.019423196417187153,0.772899638621395,12.484310479961628,0.4785034892084732,1506,0,5.859630666626346,3.0628072053988156,52.269554329071426,0.25237840276759677,0.13190266214181684,0.5018291345622685,-0.2956002505741809,-0.4365184753812361,0.132421875,0.46894839591462933,0,0,1,1,0,0,0,0,,
73.78142513849991,1300,,,,-0.068359375,-0.004296875,-0.95546875,0.01973949531345416,0.7738005588277521,12.48488699847567,0.4779866369443918,1505,0,5.844107848571239,3.1111922380879573,53.23689510602404,0.24871712575176294,0.1324074640759933,0.49994151370381346,-0.29596472115482525,-0.436603543218549,0.1341796875,0.46962854445006663,0.1,0,1,1,0,0,0,0,,
74.02940613849977,1300,,,,-0.0646484375,-0.019921875,-0.962890625,0.019680895862515885,0.7785251842375039,12.484614089296448,0.4802130105558323,1505,0,5.872212212185797,3.1007940755950636,52.80514638162767,0.2510732194822638,0.13257955570518234,0.5003889339952684,-0.2959813463759431,-0.4370496578276851,0.134375,0.4704273537694525,0.1,0,1,1,0,0,0,0,,
74.27945913849996,1300,,,,-0.069921875,-0.028125,-0.95703125,0.01966466974689386,0.7779245641123436,12.484297946068898,0.48160928503356865,1505,0,5.899273308785725,3.098782675172195,52.529024627684656,0.2510424309622038,0.13186965430829728,0.5005424265781675,-0.2960114444058333,-0.43699294530782645,0.1361328125,0.47133116022502275,0.1,0,1,1,0,0,0,0,,
74.53210113849984,1300,,,,-0.062109375,-0.00234375,-0.956640625,0.019345529591161002,0.778874548593235,12.484139167076354,0.4791594646278446,1505,0,5.873756316187242,3.049073444185976,51.91054775565533,0.2554500715082582,0.13260325261545441,0.502709606455882,-0.29586986131885057,-0.43708264595467633,0.1380859375,0.4718582423088285,0,0,1,1,0,0,0,0,,
74.78141213849992,1300,,,,-0.073046875,-0.027734375,-0.957421875,0.019395999819625035,0.779221752813729,12.484672754921714,0.4764150169966186,1505,0,5.826362108381285,3.056481410616443,52.46152038259136,0.2549445973488934,0.13374348728654248,0.5025630883731927,-0.2960612332285707,-0.4371154301146218,0.1384765625,0.47223040207030725,0.1,0,1,1,0,0,0,0,,
75.03118363849983,1300,,,,-0.0662109375,-0.001953125,-0.95234375,0.019471899287254492,0.7776589200409347,12.484603735730614,0.47826600410948333,1504,0,5.847565223785897,3.0676191005674776,52.46050893868662,0.25350643706349707,0.13299125536196185,0.5020397308567982,-0.29608805995102594,-0.4369678623243498,0.137109375,0.47262475686746724,0.1,0,1,1,0,0,0,0,,
75.29666613849989,1300,,,,-0.0708984375,-0.02109375,-0.96484375,0.019413955500796828,0.7774875192083718,12.484112196259657,0.4779481299590841,1505,0,5.851532492247744,3.0591615454060657,52.2799806271723,0.2541504825842601,0.1328697843054862,0.5018985432200601,-0.29560188373395635,-0.4369516780962274,0.134765625,0.47310698934242834,0,0,1,1,0,0,0,0,,
75.55511013849988,1300,,,,-0.073828125,-0.009765625,-0.9517578125,0.01941721272461336,0.7711480990323402,12.484716615106363,0.4747702247302856,1505,0,5.8219671247476,3.0603513410118834,52.56640759740371,0.2519807536324916,0.13245531597944823,0.5018049612185818,-0.2955417824859564,-0.43635308927516625,0.1341796875,0.4732114935779384,0,0,1,1,0,0,0,0,,
75.80406813849993,1300,,,,-0.06328125,-0.013671875,-0.9607421875,0.01934826004296577,0.7715716987798552,12.484813226043247,0.4740059589242315,1505,0,5.8107518190731495,3.0491826994629716,52.47571599979999,0.25304476962460026,0.13278444304745143,0.5022695185776082,-0.29550802433984874,-0.43639308695104606,0.133984375,0.473207013345203,0,0,1,1,0,0,0,0,,
76.05351613849987,1300,,,,-0.0802734375,-0.016796875,-0.955859375,0.0193404816205203,0.7741236787258647,12.48428642891848,0.477293588847384,1505,0,5.84213443201559,3.0480538900061984,52.17380741557779,0.2539737271093615,0.13250762597790755,0.5027489153309308,-0.2958719535725243,-0.43663405325787485,0.1322265625,0.47356093399862387,0.2,0,1,1,0,0,0,0,,
76.30476663849997,1300,,,,-0.0693359375,-0.0041015625,-0.9572265625,0.019269313544634188,0.7728225549654334,12.483714249978743,0.4792452743095616,1505,0,5.8590850187551125,3.0376822576032536,51.84608669957095,0.254413042332198,0.13190251526319116,0.5030288133811414,-0.2956652220536255,-0.43651119688991297,0.13359375,0.474025408703984,0.1,0,1,1,0,0,0,0,,
76.56933713849993,1300,,,,-0.0712890625,-0.0208984375,-0.9572265625,0.0191806546994568,0.7688497760575524,12.484129647924503,0.47690818988298,1506,0,5.827692895883651,3.024035492381988,51.890763252846625,0.2542519663128936,0.13193198762171038,0.50348743608261,-0.2955023620052149,-0.43613607409054456,0.1328125,0.4742437703792123,0,0,1,1,0,0,0,0,,
76.83045163849992,1300,,,,-0.0736328125,-0.0068359375,-0.9576171875,0.019356772308169103,0.7618022202884641,12.484567907052313,0.47845201641519386,1505,0,5.848491089663948,3.0515046116479416,52.17614501501275,0.24964921136488713,0.13025653902160378,0.5020261610274664,-0.29535199649863386,-0.43547062078692367,0.134375,0.474584094281749,0,0,1,1,0,0,0,0,,
77.08175263849975,1060,,,,-0.079296875,-0.011328125,-0.9640625,0.01882634537177055,0.7667283767948188,12.488815165840952,0.38965941717763014,1412,0,4.744951933538731,2.7866325956941305,62.28899601407396,0.27814945713195066,0.17389311234142138,0.5038835472556016,-0.2936141974922199,-0.4359357646224199,0.1333984375,0.4689473328523476,0.1,0,1,1,0,0,0,0,,
77.33057813849989,1000,,,,-0.0724609375,-0.0125,-0.9666015625,0.007699212961339188,0.7300540576011897,12.49701373226558,0.14001895576393397,1267,0,1.621094229891522,1.0517274906536034,58.147477776636194,0.5866603160192269,0.47691492480645936,0.5397658904988486,-0.25450545154550863,-0.43247285525851026,0.1373046875,0.4404422278314656,0,0,1,1,0,0,0,0,,
77.58206463849982,1000,,,,-0.0560546875,-0.0376953125,-0.9509765625,0.00025886940303114774,0.5511784750229561,12.499658000867566,0.0749433869068826,1065,0,0.8080691391769662,0.1022763653870657,12.070489655078273,0,0.68584015196612,0.564825369958626,-0.22927293306135543,-0.41558283675224905,0.1455078125,0.41140727901805374,0,0,1,1,0,0,0,0,,
77.82864113849998,1000,,,,-0.078125,-0.021484375,-0.95859375,-0.001481749078946892,0.4131570086394839,12.500546094399299,0.05946273984018744,904,0,0.6185006161262498,0.13968051077726096,22.726027097807663,0,0.6672202027700669,0.5711112763273494,-0.22373460730905706,-0.4025503977358248,0.1396484375,0.3848309797218965,0.1,0,1,1,0,0,0,0,,
78.08162213849988,1000,,,,-0.082421875,-0.012890625,-0.955078125,-0.0018102410093504277,0.29434654850034647,12.501053846591155,0.054178222503391285,770,0,0.5544344439546215,0.14569622594653728,26.284814670768082,0,0.5300066318642084,0.5725354697152835,-0.2228943007075242,-0.39133192486454965,0.1447265625,0.3595581531032556,0,0,1,1,0,0,0,0,,
78.33089613849997,1000,,,,-0.0671875,-0.014453125,-0.9603515625,-0.0022002288342675017,0.20773433116676845,12.500786009885038,0.05586293112975403,657,0,0.566110800101977,0.15090896817971527,26.66217872715855,0,0.36659577647586705,0.5733109267102928,-0.22110835182701902,-0.3831537155609256,0.16328125,0.3366349931347757,0.1,0,1,1,0,0,0,0,,
78.57993013849995,1000,,,,-0.07109375,-0.003125,-0.9548828125,-0.002714261175385463,0.1506569801694734,12.500404407865387,0.053678154819984135,560,0,0.5436283009176017,0.15908683481695535,29.27935712597617,0.6300339987389161,0.27712910591053086,0.5750020142872257,-0.2193304858899237,-0.37776428509346055,0.1587890625,0.3153536663577913,0,0,1,1,0,0,0,0,,
78.82969463849983,1000,,,,-0.0712890625,-0.021484375,-0.9576171875,-0.002814375771593886,0.09573722407744913,12.500594593387547,0.05294902601889538,486,0,0.5405649459407778,0.1430865558481281,26.49375939866628,0.6680125791028357,0.1765388564661435,0.575832304436394,-0.21941563767353295,-0.37257858180526604,0.147265625,0.2955441815276504,0,0,1,1,0,0,0,0,,
79.08094413849996,1000,,,,-0.06328125,-0.0171875,-0.957421875,-0.0027612628267425854,0.0661084424934574,12.50001326476798,0.049897294545608366,477,0,0.49250952991957886,0.13780489814391342,28.01743630980466,0.47932575750755635,0.1346815697343331,0.576270055358753,-0.22012682755830296,-0.36978093518375077,0.14765625,0.2767963229594671,0,0,1,1,0,0,0,0,,
79.32952813849994,1000,,,,-0.066015625,-0.0171875,-0.958203125,-0.0027794166627786217,0.043352161551028175,12.50100413360004,0.04974805278699255,129,0,0.49195342877995135,0.037605668880317314,8.040517448448952,0.13682620123533493,0.0356444198377694,0.5765973977293934,-0.2202945210794586,-0.3676322125872319,0.1509765625,0.25974667183142136,0,0,1,1,0,0,0,0,,
79.58053313849986,1000,,,,-0.0734375,-0.0169921875,-0.9556640625,-0.0027338602928302985,0.02098367254898072,12.50129732511674,0.05347636575537906,0,0,0.545831224301164,0,0,0,0,0.5766569898685375,-0.2206324834147105,-0.3655201065761364,0.1369140625,0.24414540397888693,0.1,0,1,1,0,0,0,0,,
79.83070713849989,1000,,,,-0.0599609375,-0.0166015625,-0.95703125,-0.0027323439588453685,0.016975949253495378,12.501207279535727,0.05090382273484574,0,0,0.5131473542122948,0,0,0,0,0.5771159697778815,-0.2210373114729231,-0.36514168421321214,0.1275390625,0.22958800559919856,0.1,0,1,1,0,0,0,0,,
80.08041513849983,1000,,,,-0.06953125,-0.0140625,-0.9546875,-0.002726795673547568,0.012249805285721449,12.501285456117788,0.047527838099691064,0,0,0.4568511312378959,0,0,0,0,0.5778292400249436,-0.2216865109837634,-0.3646954262168528,0.1208984375,0.21579697833127245,0.1,0,1,1,0,0,0,0,,
80.3315276384999,1000,,,,-0.0666015625,-0.017578125,-0.9658203125,-0.0016076257508935523,0.000053039745433008565,12.501058992129462,0.044746706103879125,0,0,0.42624747138521357,0,0,0,0,0.5709879123593076,-0.22283634898152008,-0.363543767657743,0.1158203125,0.20273042751776593,0.1,0,1,1,0,0,0,0,,
80.58043263849984,1000,,,,-0.0625,-0.033203125,-0.9552734375,0.000026218855277157736,-0.009159057586352506,12.501600535081844,0.04982204778532434,0,0,0.4910787134673124,0,0,0,0,0.5611370029501475,-0.22463256765601997,-0.36267393124869984,0.10078125,0.1912978751660368,0.1,0,1,1,0,0,0,0,,
80.83206863849996,1000,,,,-0.0625,-0.0384765625,-0.9501953125,0.0008667285417792304,-0.007506097875290614,12.50101406086145,0.05019003651495222,0,0,0.5063131270631016,0,0,0,0,0.5559446823860494,-0.22544925543812458,-0.36283000911974034,0.087109375,0.18065331018617722,0.2,0,1,1,0,0,0,0,,
81.0821216384998,1000,,,,-0.0625,-0.037890625,-0.9509765625,0.0026431275383238867,-0.009269510766246892,12.500920374860433,0.04915249693652532,0,0,0.47746205771591727,0,0,0,0,0.5529399811254618,-0.23403858410168463,-0.3626635018976079,0.077734375,0.17062172162602843,0,0,1,1,0,0,0,0,,
81.33620013849995,1000,,,,-0.0625,-0.03828125,-0.9505859375,0.0019718287639104264,-0.009937053514436653,12.500967085060628,0.048107993166859174,0,0,0.4512462254844591,0,0,0,0,0.5595363666805956,-0.23549579111413146,-0.36260047032444326,0.071484375,0.16128938777603305,0.2,0,1,1,0,0,0,0,,
81.5823526385,1000,,,,-0.0625,-0.03828125,-0.9498046875,0.001691695446853992,-0.003260772108959258,12.501289609185605,0.04564496827290851,0,0,0.421136051917869,0,0,0,0,0.5618466376104134,-0.23572287261674832,-0.36323086668635135,0.0671875,0.15256369529982414,0,0,1,1,0,0,0,0,,
81.83239363849987,1000,,,,-0.0625,-0.0373046875,-0.95078125,0.0017669042170796578,-0.0018393371869489773,12.501183702328792,0.05082690952549425,0,0,0.48814867835415576,0,0,0,0,0.5613614270894419,-0.23577820682538783,-0.3633650832283307,0.0640625,0.1449946902651169,0,0,1,1,0,0,0,0,,
82.0832336384999,1000,,,,-0.0625,-0.0380859375,-0.9498046875,0.0018684080316066446,-0.011555169989883913,12.500970406143388,0.047551518898851966,0,0,0.46144023655329497,0,0,0,0,0.5607054774855865,-0.23585194330204656,-0.36244768246585646,0.0623046875,0.13756942664278557,0.1,0,1,1,0,0,0,0,,
82.33078063849992,1000,,,,-0.0625,-0.0376953125,-0.950390625,0.0018252401776159828,-0.017321430827971836,12.50108982263408,0.04464375405213931,0,0,0.42405947873891253,0,0,0,0,0.5607422815387813,-0.2356120287652182,-0.36190321322716285,0.060546875,0.13057859881903847,0.1,0,1,1,0,0,0,0,,
82.57954113849982,1000,,,,-0.0625,-0.0384765625,-0.9505859375,0.0017923726973579485,-0.011168684417586873,12.501312126181473,0.04440327826019554,0,0,0.4255135724787972,0,0,0,0,0.5608083033012207,-0.23546208714973638,-0.3624841756997255,0.060546875,0.12409850382034068,0.2,0,1,1,0,0,0,0,,
82.82947213849994,1000,,,,-0.0625,-0.0376953125,-0.95078125,0.0017746267849643126,-0.008712977775265434,12.501323950231384,0.04700152815392696,0,0,0.4516495247294624,0,0,0,0,0.5612106808783627,-0.23569696989707728,-0.36271605156582715,0.05859375,0.11827797567478852,0,0,1,1,0,0,0,0,,
83.08419513849984,1000,,,,-0.0625,-0.037890625,-0.95,0.001776764421610029,-0.004502559669618882,12.501026372631957,0.045676520797170064,0,0,0.4430506358307683,0,0,0,0,0.5615980503987832,-0.23604403415692268,-0.36311361303675826,0.05859375,0.11273051863730407,0,0,1,1,0,0,0,0,,
83.35213663849993,1000,,,,-0.0625,-0.0380859375,-0.9505859375,0.0017693578183925259,-0.0007145222954789798,12.501073360485861,0.04394522025011494,0,0,0.41580093020096714,0,0,0,0,0.5614528928102709,-0.23587241786911348,-0.3634712919352946,0.05859375,0.10711349939762446,0,0,1,1,0,0,0,0,,
83.60628763849985,1000,,,,-0.0625,-0.0375,-0.95,0.001772968526678103,-0.0064651154021672114,12.500698892074576,0.04512272751390558,0,0,0.4418710153037929,0,0,0,0,0.5611516805828646,-0.23563572333774677,-0.36292830209512766,0.05859375,0.10240072272770295,0,0,1,1,0,0,0,0,,
83.85785413850002,1000,,,,-0.0625,-0.0380859375,-0.950390625,0.0017730907630526126,-0.00893820946058667,12.50069745060149,0.04454562903559979,0,0,0.43398138029343797,0,0,0,0,0.56107478344575,-0.23557026631735428,-0.36269478445223663,0.05859375,0.09796990891115294,0,0,1,1,0,0,0,0,,
84.10613363849977,1000,,,,-0.0625,-0.0373046875,-0.95078125,0.0017455753307759891,-0.00838134647518729,12.500612182181873,0.04559258918791278,0,0,0.4489634693769098,0,0,0,0,0.5613926658539797,-0.2356709096531629,-0.36274736527960993,0.05859375,0.09407245120935738,0.1,0,1,1,0,0,0,0,,
84.35957113849982,1000,,,,-0.0625,-0.03828125,-0.9513671875,0.001690251241824353,-0.00809441327809777,12.500995208359278,0.04387026646194159,0,0,0.4251323615364201,0,0,0,0,0.5616343600069691,-0.23553096584470462,-0.36277445845207673,0.05859375,0.09020792372811483,0,0,1,1,0,0,0,0,,
84.60846513849987,1000,,,,-0.0625,-0.0375,-0.9501953125,0.001731849882045328,-0.006303714248826813,12.501351290511176,0.04014497568907534,0,0,0.3840166897776711,0,0,0,0,0.5614968943939912,-0.23567431415365472,-0.36294354212077873,0.05859375,0.08639891575037995,0,0,1,1,0,0,0,0,,
84.85632763849995,1000,,,,-0.0625,-0.03828125,-0.95078125,0.0017837671994989,-0.0003130325612738781,12.500977957415099,0.0421952385679011,0,0,0.40556154493851865,0,0,0,0,0.5612581286288739,-0.2357953446380822,-0.3635092019112851,0.05859375,0.08307334221491784,0.1,0,1,1,0,0,0,0,,
85.10509163849989,1000,,,,-0.0625,-0.0380859375,-0.950390625,0.001768617309152374,-0.0038207232859412722,12.501319539666671,0.04496664292710771,0,0,0.4298770055054069,0,0,0,0,0.561621488165478,-0.23601295799445823,-0.3631779942618119,0.05859375,0.0802692940866139,0,0,1,1,0,0,0,0,,
85.35389763849979,1000,,,,-0.0625,-0.0380859375,-0.950390625,0.0017199198060243819,-0.004607604186396697,12.500744819433326,0.04367876025194907,0,0,0.40366795325361454,0,0,0,0,0.5618299227034289,-0.2358860643530853,-0.3631036943893566,0.05859375,0.0775018615164124,0.1,0,1,1,0,0,0,0,,
85.60736663849995,1000,,,,-0.0625,-0.0380859375,-0.9501953125,0.0016890497992996197,-0.0006552678569734767,12.500360572120915,0.04083079852754167,0,0,0.3803077111817465,0,0,0,0,0.5616306429253163,-0.2355202051291602,-0.3634768869334968,0.05859375,0.07466179713963061,0.1,0,1,1,0,0,0,0,,
85.85650963849999,1000,,,,-0.0625,-0.037890625,-0.95078125,0.0017167901234337122,-0.00899826669573338,12.501290564693793,0.03992910610944339,0,0,0.3749354264133855,0,0,0,0,0.5615164255603402,-0.23559637927460284,-0.36268911365134565,0.05859375,0.0720043806466368,0.3,0,1,1,0,0,0,0,,
86.10588863849999,1000,,,,-0.0625,-0.037890625,-0.9501953125,0.001781509326651207,-0.003602745913667311,12.50161040445592,0.04499765724903114,0,0,0.4393295544810707,0,0,0,0,0.5616381898936386,-0.23610845834816102,-0.36319857639939934,0.05859375,0.07007409754273523,0,0,1,1,0,0,0,0,,
86.35626513849994,1000,,,,-0.0625,-0.037890625,-0.95078125,0.0017077553144221609,-0.002925887572793717,12.500728356017174,0.04280049696307609,0,0,0.41528976236539944,0,0,0,0,0.5618307525454531,-0.23581024029412062,-0.3632624875813432,0.05859375,0.06800117696902666,0,0,1,1,0,0,0,0,,
86.60790013850001,1000,,,,-0.0625,-0.0376953125,-0.950390625,0.0017217643837469643,-0.00817575534021016,12.50032936268215,0.04306852648496039,0,0,0.4014348610018354,0,0,0,0,0.5618429318128605,-0.23590887423678653,-0.3627667778680942,0.05859375,0.06610090767282892,0,0,1,1,0,0,0,0,,
86.85743213849995,1000,,,,-0.0625,-0.037890625,-0.9505859375,0.0017482090472036283,-0.006568496709827917,12.500454784966418,0.04168230947213285,0,0,0.3857563329867095,0,0,0,0,0.561429586455343,-0.23571927807885085,-0.3629185404933795,0.05859375,0.06423144158088781,0,0,1,1,0,0,0,0,,
87.10517313849996,1000,,,,-0.0625,-0.0375,-0.950390625,0.0017445016822345226,-0.005100693421828538,12.501127728676796,0.04040317944336143,0,0,0.35529937624205277,0,0,0,0,0.5614983902308596,-0.23575520729341473,-0.3630571352883792,0.05859375,0.062416143600019514,0.1,0,1,1,0,0,0,0,,
87.36387913849995,1000,,,,-0.0625,-0.0375,-0.95078125,0.0017318539233433308,-0.004577664748715374,12.50140813492222,0.043032125705445776,0,0,0.3976314951539085,0,0,0,0,0.5617585994871981,-0.23589972788566177,-0.3631065213691446,0.05859375,0.060926533238662664,0,0,1,1,0,0,0,0,,
87.6310041384999,1000,,,,-0.0625,-0.0388671875,-0.9509765625,0.0017151651033045223,-0.002014969039717324,12.501438622009772,0.04342557483798107,0,0,0.39784274459217067,0,0,0,0,0.56158870812258,-0.23564840659812997,-0.36334849949341963,0.05859375,0.059532338834169994,0.1,0,1,1,0,0,0,0,,
87.8802376385,1000,,,,-0.0625,-0.0375,-0.9515625,0.001821384450135655,-0.009378174656430175,12.501221924154171,0.04350744266144221,0,0,0.4084707980794738,0,0,0,0,0.5610283919694992,-0.23583417551868116,-0.3626532414971122,0.05859375,0.058356745032988766,0.1,0,1,1,0,0,0,0,,
88.13266663849991,1000,,,,-0.0625,-0.0380859375,-0.9501953125,0.00183195379605704,-0.010453052591834523,12.501067859421605,0.04305266075010705,0,0,0.40497711887819027,0,0,0,0,0.5610760545259641,-0.23594172606545455,-0.3625517480011343,0.05859375,0.057122521299593054,0,0,1,1,0,0,0,0,,
88.38052813849986,1000,,,,-0.0625,-0.037890625,-0.9509765625,0.0017539917331524852,-0.00429799260688948,12.500702214853007,0.04849309468655234,0,0,0.4746258509590118,0,0,0,0,0.5613002657138934,-0.2356442877106415,-0.3631329289289862,0.05859375,0.05654755091928444,0,0,1,1,0,0,0,0,,
88.63021363849998,1000,,,,-0.0625,-0.037109375,-0.9505859375,0.0017591174615834006,-0.006706118691892386,12.501443270514113,0.04812553625942392,0,0,0.4623511044637644,0,0,0,0,0.561199751026775,-0.23558997241966653,-0.3629055457749812,0.05859375,0.05595977469052064,0,0,1,1,0,0,0,0,,
88.8804991384999,1000,,,,-0.0625,-0.0375,-0.9509765625,0.0017127092984238735,-0.00861670885246234,12.501915166845105,0.044698170747028074,0,0,0.40206384630992575,0,0,0,0,0.5612723199364992,-0.2353604716918027,-0.3627251415928967,0.05859375,0.05505562060619201,0,0,1,1,0,0,0,0,,
89.13154213849997,1000,,,,-0.0625,-0.0384765625,-0.9498046875,0.0016892427454929908,-0.012369436168019601,12.501812443838304,0.039964932351756785,0,0,0.3565646966682291,0,0,0,0,0.5613431375723434,-0.23527381087824462,-0.362370796785768,0.05859375,0.05385079322306474,0.1,0,1,1,0,0,0,0,,
89.38258363849982,1000,,,,-0.0625,-0.0376953125,-0.9513671875,0.0016932479893756174,-0.00811371092571912,12.501042277071619,0.04247285691643608,0,0,0.3979547927849074,0,0,0,0,0.5613920552551528,-0.23534114117561136,-0.3627726363049689,0.05859375,0.053003095097556005,0,0,1,1,0,0,0,0,,
89.63263563850002,1000,,,,-0.0625,-0.0380859375,-0.95078125,0.001791478948272458,-0.006392683344291492,12.50086901134396,0.042050213181875205,0,0,0.39078187739072756,0,0,0,0,0.5608079027139089,-0.23545611870007116,-0.3629351413673208,0.05859375,0.05214876338331733,0.1,0,1,1,0,0,0,0,,
89.89473413849996,1000,,,,-0.0625,-0.03828125,-0.95078125,0.001862185724909006,-0.0009529571771919113,12.50152558817999,0.04247864467539106,0,0,0.40654495851342787,0,0,0,0,0.5606371013386309,-0.23575390507362032,-0.363448778132647,0.05859375,0.05143640930446501,0,0,1,1,0,0,0,0,,
90.1538886384998,1000,,,,-0.0625,-0.03828125,-0.9509765625,0.0017601741990250844,0.0027166328099660474,12.501496564820476,0.041466960566629504,0,0,0.3856084421651223,0,0,0,0,0.5613423458276648,-0.23571942832602008,-0.36379527284086893,0.05859375,0.05061720354805368,0.1,0,1,1,0,0,0,0,,
90.40483013849985,1000,,,,-0.0625,-0.03828125,-0.9498046875,0.0017181664246599827,0.004024477371947669,12.5016147330614,0.04027697771044885,0,0,0.3692957101573694,0,0,0,0,0.5619554680144809,-0.23598315551284132,-0.3639187638089307,0.05859375,0.04983926082225247,0,0,1,1,0,0,0,0,,
90.6538701384999,1000,,,,-0.0625,-0.03828125,-0.9505859375,0.0017098982179188677,0.0026977522461808716,12.501258509808412,0.04466796344231028,0,0,0.42706570945418854,0,0,0,0,0.5618228696986567,-0.235816934456171,-0.3637934900761833,0.05859375,0.04948466553382734,0,0,1,1,0,0,0,0,,
90.90603163850001,1000,,,,-0.0625,-0.0380859375,-0.9509765625,0.001679445929041032,-0.0024586047685150737,12.501659477560995,0.04398259758395122,0,0,0.42137460803666277,0,0,0,0,0.5616808080414619,-0.2355029814729323,-0.363306609954549,0.05859375,0.04909538166872159,0.1,0,1,1,0,0,0,0,,
91.1565696384999,1000,,,,-0.0625,-0.0380859375,-0.9509765625,0.0016718977440412295,-0.0050242431530275085,12.500772550286538,0.043472439980669964,0,0,0.40262838826571407,0,0,0,0,0.5616074671296611,-0.23539232503915342,-0.36306435397321163,0.05859375,0.04863837563911001,0.1,0,1,1,0,0,0,0,,
91.40746513849989,1000,,,,-0.0625,-0.038671875,-0.950390625,0.0017342793732102707,-0.003949288560776434,12.501068056419692,0.043252837799996266,0,0,0.3895648201793742,0,0,0,0,0.561412933809693,-0.23561729108205967,-0.36316585470738016,0.05859375,0.04824132062915979,0,0,1,1,0,0,0,0,,
91.65488813849996,1000,,,,-0.0625,-0.037890625,-0.951171875,0.0017189252858031134,0.004153126271839409,12.501462131369479,0.044982348954543984,0,0,0.4412312979540423,0,0,0,0,0.5612473873392009,-0.23537810985982582,-0.36393091125951427,0.05859375,0.04798277418264595,0.3,0,1,1,0,0,0,0,,
91.9075681384999,1040,,,,-0.0625,-0.03828125,-0.9513671875,0.0017479396080138764,0.008784911268282118,12.501079464128592,0.044361780459338945,0,0,0.4305731064210111,0,0,0,0,0.5609451831348128,-0.23530040005134842,-0.3643682595726789,0.05859375,0.047777844656645654,0,0,1,1,0,0,0,0,,
92.15726463849994,1400,,,,-0.0921875,-0.035546875,-0.9689453125,0.005004806575996746,0.0037212822405464844,12.470214612139895,0.7147169593156585,156,0,9.011267879360755,0.370166488269828,2.5536037121443766,0.021199118057726545,0.00019978761058478327,0.5612972374975819,-0.2560957433045524,-0.3638901351313518,0.1201171875,0.09714345982383052,0,0,1,1,0,0,0,0,,
92.40638963849986,1400,,,,-0.0705078125,-0.030859375,-0.95859375,0.048934418673000316,0.11043513541573695,12.455076153661667,1.2208904417650723,1412,0,15.13437585261209,7.351296465254205,50.57653670996484,0.01290589502815712,0.0082688824630856,0.5219179097205514,-0.49858534328775894,-0.37396640674441617,0.1916015625,0.19839733098074866,0,0,1,1,0,0,0,0,,
