Time (s),ESC signal (µs),Servo 1 (µs),Servo 2 (µs),Servo 3 (µs),AccX (g),AccY (g),AccZ (g),Torque (N·m),Thrust (N),Voltage (V),Current (A),Motor Electrical Speed (RPM),Motor Optical Speed (RPM),Electrical Power (W),Mechanical Power (W),Motor Efficiency (%),Propeller Mech. Efficiency (N/W),Overall Efficiency (N/W),Left Load Cell (mV),Right Load Cell (mV),Thrust Load Cell (mV),Vibration (g),Burst Current Cutoff (A),Pin State 1,Pin State 2,Pin State 3,Pin State 4,Debug 0,Debug 1,Debug 2,Debug 3,App message,
0,1000,,,,-0.0625,-0.0388671875,-0.9478515625,0.00009553019009075352,0.00029201879937471183,12.499856600361342,0.05934918329106657,0,0,0.6179101526478503,0,0,0,0,0.4540001545056124,-0.11275560313833528,-0.3934879172198695,0.060546875,0.06277134486161538,0,0,1,1,0,0,0,0,,
0.3554132635000162,1000,,,,-0.0625,-0.03828125,-0.948046875,0.00008897218106276117,-0.00006626187579645236,12.499561703131736,0.06146085405523943,0,0,0.6370406014730393,0,0,0,0,0.45424545321612575,-0.11292559890703384,-0.3934540871847868,0.0599609375,0.06267654854239965,0,0,1,1,0,0,0,0,,
0.6058737635000201,1000,,,,-0.0625,-0.0388671875,-0.9478515625,0.00008043790348105542,-0.0029793171068976266,12.499527921998194,0.06292589504858069,0,0,0.6484587793991279,0,0,0,0,0.4544259824455924,-0.11302737860574041,-0.3931790269666513,0.05859375,0.06273913968733784,0.1,0,1,1,0,0,0,0,,
0.8540897635000118,1000,,,,-0.0625,-0.036328125,-0.9501953125,0.00008475545213888334,-0.009344736192535348,12.499781910731574,0.0610358335314494,0,0,0.6472470029367843,0,0,0,0,0.45451584316710997,-0.11313193529608326,-0.39257798324337234,0.05859375,0.06256538287114122,0,0,1,1,0,0,0,0,,
1.1058057635000207,1000,,,,-0.0625,-0.038671875,-0.9482421875,0.00010519449087337395,-0.009581880713000156,12.499380530417076,0.06340774987671037,0,0,0.6776073570899477,0,0,0,0,0.4545738299265528,-0.1133104772719197,-0.3925555912808609,0.05859375,0.06268171380260094,0,0,1,1,0,0,0,0,,
1.3547107635000077,1000,,,,-0.0625,-0.0388671875,-0.9478515625,0.000042011650081068927,-0.0013090338283240136,12.498889581839155,0.06013670373534805,0,0,0.6390648337241343,0,0,0,0,0.45481394468696806,-0.11311972612973442,-0.3933367405856886,0.05859375,0.062445224023501035,0,0,1,1,0,0,0,0,,
1.604018263500021,1000,,,,-0.0625,-0.0384765625,-0.948828125,0.000006981561864271699,0.0056684337127318315,12.498896963962965,0.06053386714963126,0,0,0.6449991717301801,0,0,0,0,0.45473847062222994,-0.11283431696141819,-0.39399557592920864,0.05859375,0.06228876123132802,0,0,1,1,0,0,0,0,,
1.8551887635000053,1000,,,,-0.0625,-0.03828125,-0.948828125,0.00004165729858469933,0.012424440366999533,12.499002019883417,0.06452642408140882,0,0,0.6831406752069944,0,0,0,0,0.45455702636955425,-0.11289623076819859,-0.39463350021028876,0.05859375,0.06250378527867916,0,0,1,1,0,0,0,0,,
2.1055677635000265,1200,,,,-0.0640625,-0.0298828125,-0.9546875,0.0002702176722291628,0.012502360095105199,12.497254014369336,0.0989126606726051,0,0,1.1257134454908242,0,0,0,0,0.45459358589221105,-0.11436581434260824,-0.39464085764628265,0.059375,0.06473966629398147,0.1,0,1,1,0,0,0,0,,
2.353814763500023,1200,,,,-0.072265625,-0.0177734375,-0.959375,0.007390766397140333,0.016644342581706273,12.48286327801568,0.4358797650811228,706,0,5.32257919109101,0.8324750957965319,12.541499212736056,0.04708883687215191,0.0025611303913256334,0.4376497588603995,-0.14457563414466504,-0.39503195720186735,0.071484375,0.09491017367237722,0,0,1,1,0,0,0,0,,
2.604018763499998,1200,,,,-0.072265625,-0.0125,-0.961328125,0.016456016625518738,0.13262912636342047,12.473749793555937,0.6783375670012114,1896,0,8.32792676479647,3.2806845127775928,39.257809745252516,0.03898282786832876,0.015665942550472056,0.40689680041796644,-0.1751286382159273,-0.4059836204545145,0.087890625,0.1435988094445021,0,0,1,1,0,0,0,0,,
2.8540812635000217,1200,,,,-0.062890625,-0.0177734375,-0.963671875,0.016256203050727527,0.42042515887346266,12.471484335428444,0.7261917865876242,2188,0,8.937510645685778,3.7232491515292145,41.669371671045525,0.1129035514797765,0.046997956275720766,0.40204380329318806,-0.16969186788959978,-0.433158264668446,0.1046875,0.18847514624563141,0,0,1,1,0,0,0,0,,
3.1063162635000188,1200,,,,-0.0685546875,0.0056640625,-0.9583984375,0.0149805021961397,0.5631707295273383,12.471082358326452,0.7289062501418475,2269,0,8.960227227022902,3.5593544173632123,39.71664596045112,0.15894092034938764,0.06287082239502337,0.4052740309697202,-0.1644471523075701,-0.44663676908632166,0.125390625,0.22994738803924414,0.1,0,1,1,0,0,0,0,,
3.3540782635000186,1200,,,,-0.0693359375,-0.0134765625,-0.959375,0.013984620717958529,0.6731187924641536,12.471193163298159,0.7227444556845402,2275,0,8.88337112687351,3.3320494204691413,37.50956126369484,0.2020484401953848,0.07576852474504647,0.4073265281809452,-0.15994875785477788,-0.45701842538040083,0.1494140625,0.2667102528016475,0.1,0,1,1,0,0,0,0,,
3.605897263500013,1200,,,,-0.06796875,-0.018359375,-0.961328125,0.013880647384263709,0.7087907211031595,12.472126559704078,0.7272036492382703,2278,0,8.940473183975875,3.310660890189414,37.0303048559261,0.2141469412154029,0.07927854194632092,0.40677769858661905,-0.15882189109938158,-0.4603866857442955,0.16640625,0.30176165744109357,0,0,1,1,0,0,0,0,,
3.8537952635000288,1200,,,,-0.07421875,-0.0189453125,-0.957421875,0.013162247192107849,0.7116157692400343,12.47200838300979,0.7270611246087779,2275,0,8.950696318028225,3.1361562042042013,35.038246190663166,0.22691819363851828,0.07950497838194281,0.41084033171816603,-0.15780059305069957,-0.4606534360442816,0.175390625,0.33366113879485176,0,0,1,1,0,0,0,0,,
4.105341263500014,1200,,,,-0.073828125,-0.0109375,-0.95625,0.013501299144116977,0.6895926391567018,12.471898013330852,0.7319537057093012,2278,0,8.992372754486329,3.221203589393331,35.822601111646414,0.21416769283764017,0.07668650969069297,0.40918027685736036,-0.15850421210175522,-0.4585739399536923,0.184375,0.3639852443842542,0,0,1,1,0,0,0,0,,
4.355755763500032,1200,,,,-0.078125,-0.0140625,-0.956640625,0.013687708228589182,0.6756594902929081,12.471035682499487,0.7306263158180182,2279,0,8.962212403290728,3.2670140470927755,36.45369532802347,0.20685381877751682,0.07539107448141529,0.4074057039359908,-0.1581487788064906,-0.45725832639275793,0.1904296875,0.3916820486195337,0.1,0,1,1,0,0,0,0,,
4.604497763500031,1200,,,,-0.06953125,-0.005859375,-0.9689453125,0.014322022627368824,0.6658598909970345,12.471153455552347,0.7298193302712319,2277,0,8.965512718219575,3.415603821106319,38.09739829841113,0.19495336697056834,0.07427178999602585,0.4036199598542637,-0.15887947586806755,-0.45633301612359994,0.192578125,0.41713517805731987,0,0,1,1,0,0,0,0,,
4.854062263500021,1200,,,,-0.073046875,-0.0080078125,-0.9556640625,0.014238143679555263,0.6957867489156585,12.47146704043098,0.7289780876557316,2275,0,8.962121227094901,3.3920172748708515,37.84873859476689,0.20513369538838153,0.07763598529419297,0.40347646710665935,-0.1582281308907369,-0.45915880808913406,0.1908203125,0.44062845839694165,0.1,0,1,1,0,0,0,0,,
5.106249263500027,1200,,,,-0.0634765625,-0.0216796875,-0.9673828125,0.014252492987208048,0.7161160283805577,12.4718219166988,0.7236493318527407,2276,0,8.911834323826355,3.396465409683871,38.11192743540501,0.21089724874646595,0.08035692088004474,0.40418879454909823,-0.1589318942908513,-0.4610783652552494,0.1884765625,0.4621394410796137,0,0,1,1,0,0,0,0,,
5.3542207635000185,1200,,,,-0.060546875,-0.0205078125,-0.9576171875,0.01352588762017537,0.7343896920867498,12.471441228608844,0.7259769739855939,2278,0,8.926796080612144,3.226627561898327,36.146301817498866,0.22761765065509787,0.08226864579292742,0.40916497787932293,-0.1586457463731006,-0.46280382444719803,0.1859375,0.4819081040869289,0,0,1,1,0,0,0,0,,
5.605106763500016,1200,,,,-0.0705078125,-0.0001953125,-0.964453125,0.013326103230464025,0.7119576966719839,12.471909502703902,0.7244807590463072,2278,0,8.911672580164417,3.1788556507662156,35.67087069028863,0.22398294054089282,0.079890155245303,0.4114040834930588,-0.1593170920469284,-0.4606857219525658,0.1876953125,0.5003067325236012,0,0,1,1,0,0,0,0,,
5.854626263500017,1200,,,,-0.0595703125,-0.0298828125,-0.9486328125,0.013017465407812115,0.6881970765626697,12.471662144887256,0.7257456156976748,2277,0,8.929689815920394,3.1033598676472836,34.753324966431755,0.22182661605394233,0.07707005890114375,0.41311668406770546,-0.1588500920550849,-0.4584421663616787,0.1865234375,0.5172960677330869,0,0,1,1,0,0,0,0,,
6.1040612635000215,1200,,,,-0.062890625,-0.0126953125,-0.9626953125,0.013771783244106477,0.6551984396071069,12.471483011455469,0.7252372875699808,2276,0,8.897102008339312,3.2829568069212014,36.899614912813504,0.19961400802787027,0.07364186237525114,0.40780601182711396,-0.15902253437035666,-0.45532632695628034,0.1869140625,0.5330151267064887,0.1,0,1,1,0,0,0,0,,
6.357236263500033,1200,,,,-0.071484375,-0.0140625,-0.9619140625,0.014116565604336056,0.6711280080011401,12.472348725420302,0.7266338726333899,2276,0,8.92130750032292,3.365204775176591,37.720261492327076,0.19946769305566167,0.07522710006523851,0.40487587447369233,-0.1586683757629074,-0.4568304489895619,0.1888671875,0.5477553796134653,0,0,1,1,0,0,0,0,,
6.604904763500014,1200,,,,-0.0662109375,-0.0078125,-0.9638671875,0.014547983385263103,0.6888114551928939,12.47191270731519,0.7306917001023562,2276,0,8.974305284954315,3.4679532007780436,38.64364918521002,0.19864333442309712,0.07675708842816145,0.4015427758187677,-0.1585122831297033,-0.4585001780046586,0.18828125,0.5615423814124988,0,0,1,1,0,0,0,0,,
6.8599362635000265,1200,,,,-0.0740234375,-0.005859375,-0.9671875,0.014141461665560604,0.715902131694634,12.472238841501504,0.7263779626469479,2276,0,8.914716637939145,3.3708259267366194,37.81203447809159,0.2123917305002111,0.08030868781802314,0.4048248497245896,-0.1587810772446435,-0.4610581684294356,0.1900390625,0.5742378172105131,0,0,1,1,0,0,0,0,,
7.104296263500018,1200,,,,-0.0681640625,-0.0109375,-0.9630859375,0.013824509152618689,0.7169649349549769,12.471749288140703,0.7301383011466955,2276,0,8.972376636697911,3.295491193086196,36.728819008114,0.21766442944209832,0.07990818435705348,0.4072904545149747,-0.15891027128155005,-0.4611585217950374,0.187890625,0.5857556953219311,0,0,1,1,0,0,0,0,,
7.355422763500013,1200,,,,-0.074609375,-0.00703125,-0.959375,0.013277808312552427,0.7068010661577794,12.471896482334392,0.7271007406640437,2277,0,8.926397845389058,3.166116582896351,35.46904999787377,0.22323424333939046,0.07917907651079614,0.4115143903416943,-0.15910822094396052,-0.4601988160062119,0.1892578125,0.5964462242484809,0,0,1,1,0,0,0,0,,
7.605283763500023,1200,,,,-0.071484375,-0.0212890625,-0.9626953125,0.013262039480691556,0.6839528007338346,12.471731984714857,0.7255574480716008,2277,0,8.896555555328796,3.1626619461458114,35.54937927781573,0.21627341723922372,0.07687846152213289,0.4114276939046557,-0.1589343381801042,-0.4580414079336057,0.1904296875,0.6061778113639147,0.1,0,1,1,0,0,0,0,,
7.85428076350002,1200,,,,-0.0701171875,-0.0189453125,-0.9572265625,0.013602520194659198,0.6674096702722092,12.472018418767776,0.7302842186821303,2280,0,8.965554773056729,3.247157796328284,36.214451834492834,0.20581747748322163,0.07444575122416514,0.4088610067175936,-0.1588661279222929,-0.4564793513598632,0.1935546875,0.6155182790425953,0,0,1,1,0,0,0,0,,
8.10529926350001,1200,,,,-0.07421875,-0.0013671875,-0.9646484375,0.014656075523889922,0.6703506538771756,12.471424620695455,0.7297882189562099,2281,0,8.959284495244432,3.5006706286001767,39.07452553956391,0.19150057230101228,0.07482742951435464,0.40122214981476806,-0.15891626399135847,-0.4567570486665528,0.1958984375,0.6242524619344347,0,0,1,1,0,0,0,0,,
8.354884263500017,1200,,,,-0.0732421875,-0.0154296875,-0.9517578125,0.014509949323647613,0.7136623387041278,12.472035936731697,0.7276337159909323,2282,0,8.930901761671823,3.467427555230386,38.825737488165636,0.20583903396571004,0.07990941033255894,0.4023025440094076,-0.15892730879253877,-0.46084667983767497,0.19921875,0.6319762861685854,0.1,0,1,1,0,0,0,0,,
8.604538263500034,1200,,,,-0.067578125,-0.008203125,-0.96171875,0.014107979689761763,0.7194475979621457,12.471689361568869,0.7282850091381677,2281,0,8.937699687503741,3.370328840444106,37.709636894709476,0.21379591798893455,0.08049597967604684,0.40515974237069585,-0.1588588289338954,-0.4613929429694174,0.2052734375,0.6392633509815138,0.1,0,1,1,0,0,0,0,,
8.853810763500015,1200,,,,-0.0666015625,-0.0060546875,-0.9556640625,0.013064011780081281,0.7055213328298806,12.472112256453817,0.7256412489269431,2280,0,8.912157118950736,3.1185648092858402,34.9917484653332,0.22628793301971142,0.07916576938232787,0.4121819225324555,-0.15833791614874257,-0.46007797939296513,0.2046875,0.645727424719741,0.1,0,1,1,0,0,0,0,,
9.105054263500014,1200,,,,-0.0634765625,-0.0080078125,-0.9564453125,0.01352379853870484,0.6724061432803873,12.471981205867923,0.7327625419861856,2283,0,9.002674040693659,3.2334660803773447,35.9169832071862,0.20796176099111446,0.07468989079545274,0.40958015899306177,-0.15899016838636287,-0.4569511347098197,0.2029296875,0.6524484332010974,0,0,1,1,0,0,0,0,,
9.355521263500025,1200,,,,-0.06953125,-0.0181640625,-0.95546875,0.013817326334163682,0.6735142620601146,12.471935419416866,0.7260522837001977,2280,0,8.915209668451325,3.29960969846348,37.014091551451614,0.20427534557559707,0.07554765786514607,0.4069928107127593,-0.15860873732564906,-0.45705576691521604,0.2037109375,0.657970426882873,0,0,1,1,0,0,0,0,,
9.604735263500025,1200,,,,-0.0703125,-0.006640625,-0.96171875,0.014524429435539337,0.6939383726597103,12.471599584315392,0.7282008137278367,2283,0,8.942585741247738,3.472971384081995,38.83731117947624,0.1998931814553926,0.07759700399272765,0.4027737323557168,-0.15942421896190448,-0.4589842783477378,0.2076171875,0.6632030695755237,0.1,0,1,1,0,0,0,0,,
9.85459226350002,1200,,,,-0.0716796875,-0.0251953125,-0.9564453125,0.013758017427994446,0.7313581535594311,12.472268016700255,0.7276465072913176,2280,0,8.936794890376547,3.2852045707680992,36.7605616788847,0.22262646660515978,0.08183727789878546,0.4072901339687345,-0.15849163058304527,-0.4625175766480808,0.2103515625,0.6680898106533143,0.2,0,1,1,0,0,0,0,,
10.10768526350002,1200,,,,-0.075,-0.01328125,-0.959375,0.013532185013350777,0.6963684870299223,12.471754134411132,0.7259352098898889,2281,0,8.921724307829624,3.2324658935085653,36.23164316723496,0.21542675484323218,0.07805360134947954,0.4094481932646638,-0.158929283063469,-0.45921373770766605,0.2099609375,0.6725027609914574,0,0,1,1,0,0,0,0,,
10.35413026350002,1200,,,,-0.067578125,-0.0140625,-0.96328125,0.013459529720882182,0.6711168576405174,12.471416331631676,0.730474153348556,2257,0,8.976300029496311,3.1810532286604345,35.43621858500757,0.21138906743932798,0.07476640827994345,0.41043387531830666,-0.15932103643643683,-0.45682939613598306,0.213671875,0.6768333185705552,0,0,1,1,0,0,0,0,,
10.603299763500022,1200,,,,-0.064453125,-0.00390625,-0.957421875,0.014527561762178403,0.6558100949158476,12.471838180823406,0.7280481968900868,2286,0,8.925010992797676,3.478070810106557,38.97157926890417,0.18854993628286068,0.07348426376671563,0.4027856659030883,-0.15945420503024793,-0.4553840814543242,0.2177734375,0.6807183438359898,0.1,0,1,1,0,0,0,0,,
10.853886763500025,1200,,,,-0.0673828125,-0.010546875,-0.9638671875,0.013919648667800063,0.7282974699620145,12.472046880056205,0.725513632403977,2282,0,8.91364439336954,3.3270240015190895,37.325196996611496,0.2190559473836681,0.08170685432616978,0.40624068100773536,-0.15860479071019437,-0.46222857687596497,0.21484375,0.6840459310607536,0,0,1,1,0,0,0,0,,
11.10648626350001,1200,,,,-0.0640625,-0.00703125,-0.9619140625,0.013530177595674537,0.7158369285310999,12.471762629090936,0.7278716622163858,2284,0,8.921287939250613,3.2358429746914306,36.27199022680081,0.22122936957218314,0.08024135193396627,0.4089864168279943,-0.15851895666273408,-0.4610520117331281,0.2140625,0.6873911797049572,0.1,0,1,1,0,0,0,0,,
11.35460626350002,1200,,,,-0.0677734375,-0.015625,-0.96328125,0.013160348059361471,0.6977828946036665,12.471512512198979,0.7258524246399903,2285,0,8.900355198931132,3.1486776972784787,35.3770160867059,0.22159602410005705,0.07839955906217008,0.4120258001910768,-0.15880960487889867,-0.4593472907044004,0.2140625,0.6902945146540442,0.1,0,1,1,0,0,0,0,,
11.604621763500012,1200,,,,-0.0755859375,-0.0126953125,-0.955078125,0.014105691798506653,0.6421308621366485,12.471826253916968,0.7255451052286535,2284,0,8.909256064665703,3.3733149196871883,37.862220605306774,0.19056223336788747,0.07207519022805702,0.4056344677491472,-0.15925328135307057,-0.4540924434819302,0.215234375,0.6929228588388143,0.2,0,1,1,0,0,0,0,,
11.85617976350002,1200,,,,-0.0662109375,0.0076171875,-0.9654296875,0.014135112045898884,0.6880320246719073,12.47153465968439,0.7259116496068172,2284,0,8.903101349968917,3.3803026765547677,37.967552617335095,0.20362575345353204,0.0772798737232997,0.40503112775299116,-0.15891877840911664,-0.4584265816214404,0.2130859375,0.6954520331619264,0.1,0,1,1,0,0,0,0,,
12.105025263500028,1200,,,,-0.0634765625,-0.02421875,-0.955859375,0.013876639834774454,0.708020563665372,12.471270075267093,0.729535157738796,2283,0,8.962642239037445,3.3179542534901936,37.020114862175106,0.21338953412073716,0.07899822648025176,0.40709400263633116,-0.15906908624530577,-0.46031396495597177,0.21015625,0.6980792603552242,0.2,0,1,1,0,0,0,0,,
12.355412263500009,1200,,,,-0.067578125,-0.011328125,-0.9603515625,0.013290323803925818,0.7203765202415985,12.47163033407172,0.7279736167104617,2283,0,8.952875567749983,3.1780316341904546,35.49694587402498,0.22676518153161992,0.0804639298516498,0.4116449369808074,-0.15929939886695096,-0.46148065485420736,0.210546875,0.7003273395834607,0,0,1,1,0,0,0,0,,
12.606129763500016,1200,,,,-0.0673828125,-0.024609375,-0.949609375,0.013683732520769421,0.6470770294928704,12.471689471231032,0.7227852061745844,2284,0,8.889552162542348,3.2722660828549985,36.8100850453027,0.19808199538023627,0.07279060797661313,0.40847093549868313,-0.159041173218323,-0.45455947680742687,0.2087890625,0.7019591202378863,0.1,0,1,1,0,0,0,0,,
12.855292263500019,1200,,,,-0.07265625,0.0052734375,-0.962890625,0.014342309121892303,0.6778087181075841,12.47183692093923,0.7251330856056277,2283,0,8.931413228258283,3.428931952473982,38.392801438685225,0.19770067825811796,0.07588586537820372,0.40411474963042054,-0.15943324594554642,-0.45746126352392374,0.2083984375,0.7036720085853434,0,0,1,1,0,0,0,0,,
13.10490926350002,1200,,,,-0.0794921875,-0.0166015625,-0.9462890625,0.014237585242324458,0.7116315082845509,12.47195789511788,0.7269558558996597,2282,0,8.942104706921372,3.402012996165335,38.04513682232404,0.20918040010113415,0.07958334679656068,0.40407383330604585,-0.15873908696768124,-0.46065492217642606,0.208984375,0.7055127357367185,0,0,1,1,0,0,0,0,,
13.354751763500015,1200,,,,-0.0673828125,-0.0056640625,-0.9666015625,0.013634834692161753,0.7191016377505199,12.47170372871722,0.7269893657797886,2283,0,8.937188956359016,3.260379305475598,36.48125597751689,0.22080501552918633,0.08046264535428949,0.40894432689674975,-0.1591412079567262,-0.4613602762728647,0.208203125,0.707118079444416,0.1,0,1,1,0,0,0,0,,
13.60662926350003,1200,,,,-0.0744140625,-0.031640625,-0.950390625,0.013496046364625005,0.6860958380426678,12.470630931298874,0.7377286632085455,2302,0,9.077509846029733,3.25296069933177,35.84610487955791,0.2114288084096983,0.0755812990446206,0.4105568095353863,-0.1596566730949922,-0.45824376053692967,0.2115234375,0.7096657295942946,0.2,0,1,1,0,0,0,0,,
13.85525826350001,1200,,,,-0.067578125,-0.0087890625,-0.959375,0.01399533965939955,0.7195306431084878,12.471167461805388,0.731515672060103,2296,0,8.994879983452545,3.365495459585682,37.41509933791336,0.2141214480458134,0.07998924690354975,0.4073916368163135,-0.16007227474196464,-0.46140078436419224,0.2224609375,0.7111447603343067,0.2,0,1,1,0,0,0,0,,
14.104583763500022,1200,,,,-0.0669921875,-0.0203125,-0.9484375,0.013127578683722597,0.7533256111286374,12.471785128500496,0.727855847679006,2287,0,8.94873419499174,3.1433948379364898,35.12704305074708,0.23967675408623015,0.08417083668748801,0.41188420349896127,-0.15848147327287646,-0.464591815957502,0.227734375,0.7124138827004901,0.1,0,1,1,0,0,0,0,,
14.35479226350002,1200,,,,-0.069140625,-0.0126953125,-0.969140625,0.013722537994244735,0.6659783524092456,12.471727075780938,0.7271561737640184,2282,0,8.931881545349594,3.2796995331007404,36.71966775146102,0.2031091636737266,0.0745645457227689,0.4076450224884189,-0.15857403535408068,-0.45634420163822237,0.220703125,0.7135017048790863,0,0,1,1,0,0,0,0,,
14.604917763500035,1200,,,,-0.0685546875,-0.011328125,-0.95546875,0.01400601174875514,0.6846925268366805,12.471383503568363,0.7272515719233171,2282,0,8.925635750375905,3.347650779605857,37.5060674842721,0.20452832216471717,0.07671046734912591,0.4055090797020046,-0.15851810846357636,-0.45811125529559077,0.2146484375,0.7144858042535543,0.1,0,1,1,0,0,0,0,,
14.854832763500022,1200,,,,-0.0765625,-0.0046875,-0.96015625,0.014180906337764889,0.7073327490562176,12.47186670140162,0.7274681103956459,2281,0,8.94062655168957,3.3875761768093917,37.888716024604506,0.20889936641782478,0.07912323374831728,0.40446508355569283,-0.1587194208982924,-0.460249019247284,0.21171875,0.7155936430902061,0,0,1,1,0,0,0,0,,
15.105665763500014,1200,,,,-0.069140625,0.0029296875,-0.9609375,0.013177929346856323,0.73175490316883,12.471552619743889,0.7224382377664821,2277,0,8.870388926547689,3.142891002800815,35.43157915880688,0.23290076653621966,0.08249413594028378,0.4122154033525739,-0.15908351794710257,-0.4625550390459582,0.20703125,0.7159555545225371,0.1,0,1,1,0,0,0,0,,
15.354394763500016,1200,,,,-0.06640625,-0.0123046875,-0.959375,0.013473492019839012,0.6928661659138832,12.470914489994634,0.7304139462990881,2285,0,8.956871121577736,3.224512338492226,35.99799042378552,0.2150082955816045,0.07735974256826465,0.4105513834198242,-0.15951008846345327,-0.4588830370742306,0.2044921875,0.7170985859824505,0,0,1,1,0,0,0,0,,
15.606637263500016,1200,,,,-0.071484375,-0.005078125,-0.96328125,0.013808073252789741,0.6770158079317017,12.471440971073793,0.7325937126641284,2289,0,8.99113628021622,3.3101877210844677,36.81709235323153,0.2045959804708463,0.07529803074090441,0.40825186567442107,-0.15963485315176734,-0.4573863943475307,0.21640625,0.7183825198615684,0,0,1,1,0,0,0,0,,
15.868444263500015,1200,,,,-0.067578125,0.0044921875,-0.95625,0.014799142703532036,0.6909932497209227,12.472041807745404,0.7296204280198898,2285,0,8.945704959356808,3.541724369218798,39.591367982037255,0.19506440917636172,0.07724353091681038,0.40016749348944963,-0.15890813812005966,-0.45870619019158837,0.21875,0.7192101532478826,0.1,0,1,1,0,0,0,0,,
16.12993976350002,1200,,,,-0.0703125,-0.0189453125,-0.9541015625,0.013635997172768647,0.7474413621344969,12.471456675888763,0.7324473747457635,2287,0,8.978190624980133,3.265350795422824,36.367032046175325,0.22901090062862497,0.08325038036733154,0.40883107589902057,-0.1590509870936519,-0.46403620589058303,0.2201171875,0.7203664887462141,0,0,1,1,0,0,0,0,,
16.38039026350002,1200,,,,-0.06796875,-0.00625,-0.959765625,0.013662341943868303,0.6837251718752264,12.47159276083418,0.7282511217419321,2283,0,8.95105874632878,3.2665797520910473,36.492764137859226,0.20940893469595165,0.07638931059663141,0.40862415171020344,-0.15903853853922575,-0.4580199144710602,0.220703125,0.7207797916709444,0.1,0,1,1,0,0,0,0,,
16.629309263500012,1200,,,,-0.0625,-0.012109375,-0.957421875,0.013937169171235417,0.6880158068094621,12.470942202030784,0.7339002259692593,2288,0,9.02841127851744,3.339910253698548,36.994000798660906,0.2060037008358901,0.07620601149825262,0.406688334513706,-0.15910056205089435,-0.45842505027773833,0.2197265625,0.7218709739276106,0,0,1,1,0,0,0,0,,
16.88031826350002,1200,,,,-0.073828125,-0.01796875,-0.95859375,0.01459585694111476,0.70002935839516,12.471509367362142,0.7293699085018177,2287,0,8.96380779610052,3.495013332562903,38.99082227480634,0.20029269222753823,0.07809873970301909,0.40193509932768706,-0.1591513834251489,-0.4595594091750441,0.2220703125,0.7224296892192242,0.2,0,1,1,0,0,0,0,,
17.129755263500023,1200,,,,-0.075390625,-0.0056640625,-0.959765625,0.013688080944989689,0.739804133949692,12.471783943675,0.7283588417241829,2282,0,8.929669920619684,3.270995238991033,36.63135868159886,0.22658849824844013,0.08284742782568347,0.4085264247462267,-0.15911632242905005,-0.4633150737856938,0.2208984375,0.722812396561558,0,0,1,1,0,0,0,0,,
17.37913726350001,1200,,,,-0.06640625,-0.0091796875,-0.9611328125,0.01345066785146078,0.692521630125844,12.471816562923465,0.7260670218268289,2282,0,8.911386833107782,3.2141992254932212,36.06967312900887,0.2157681380667564,0.07770929231356928,0.4101518256309598,-0.15902236804575082,-0.4588505048764192,0.2205078125,0.7230906229979661,0,0,1,1,0,0,0,0,,
17.630931763500005,1200,,,,-0.07109375,-0.0126953125,-0.966015625,0.01404482280315426,0.6773005323917315,12.471593205472065,0.7282590957434796,2282,0,8.941975242517536,3.3556928041038696,37.527513392414974,0.20183585980870508,0.0757443434988585,0.4057566914566193,-0.15897555755765597,-0.4574132789638085,0.2189453125,0.7234681589888533,0,0,1,1,0,0,0,0,,
17.88004826350001,1200,,,,-0.066796875,-0.0248046875,-0.961328125,0.014439881367870323,0.6831269053570499,12.471209468364805,0.7315889474898646,2286,0,8.982105740618596,3.456105117466813,38.47789234383994,0.19769484097408574,0.0760556387900821,0.4036955699180106,-0.15968615842744988,-0.4579634241864835,0.2208984375,0.7241525738369567,0,0,1,1,0,0,0,0,,
18.131426763500023,1200,,,,-0.07421875,0.001953125,-0.9662109375,0.01395809164508939,0.7269638437501985,12.47159540665302,0.7227641925760209,2282,0,8.868149102186026,3.3361549297604767,37.61677610066597,0.21838268346249845,0.0819798113233612,0.4069757695477856,-0.15947975355214988,-0.4621026515200648,0.223046875,0.7239562417006281,0.1,0,1,1,0,0,0,0,,
18.38059026350002,1200,,,,-0.0650390625,-0.0158203125,-0.9544921875,0.01336347499913631,0.7117185033488616,12.471970193363134,0.7283886969716463,2284,0,8.936851172506367,3.1961270142067337,35.76193258972931,0.2229332618866529,0.07964809797885582,0.41070886133579815,-0.15895348823675326,-0.4606631365353954,0.221875,0.7242726575610706,0,0,1,1,0,0,0,0,,
18.63286076350002,1200,,,,-0.074609375,0.009765625,-0.962109375,0.013999774130343114,0.6874699764176337,12.472133902179378,0.7288021186988718,2284,0,8.942855088488853,3.348356619362799,37.44177528462166,0.20532709757774276,0.07687345664528648,0.4058683609348198,-0.1587882853031429,-0.45837351118399283,0.2216796875,0.7246813000877343,0.1,0,1,1,0,0,0,0,,
18.87999876350003,1200,,,,-0.0671875,-0.0171875,-0.96171875,0.0145296132633056,0.6947776303933388,12.471212686922085,0.7332558859088083,2290,0,9.01280774628415,3.483700676106122,38.65589998605235,0.19951513251477984,0.07709178703471552,0.4027939727628542,-0.15947426715301377,-0.4590635238123684,0.21875,0.7253951441544931,0,0,1,1,0,0,0,0,,
19.130869763500023,1200,,,,-0.0640625,-0.003515625,-0.964453125,0.014366777496385975,0.7306194234949963,12.471741212584678,0.728411066964778,2285,0,8.942067688992857,3.4372867001761156,38.43983068827772,0.21325537239888503,0.08170641560175645,0.4035617038777051,-0.15911090083033147,-0.4624478233353055,0.2234375,0.7255430271075622,0,0,1,1,0,0,0,0,,
19.38113426350002,1200,,,,-0.0837890625,-0.0111328125,-0.9484375,0.013340324110825239,0.7268701320161349,12.471177591324375,0.7295457934012088,2285,0,8.963703149405946,3.192289698822849,35.610413411792095,0.2280156305882741,0.08110620765629827,0.41039327742739246,-0.15853603293727808,-0.46209380295113345,0.2208984375,0.7258086534781933,0.2,0,1,1,0,0,0,0,,
19.62953076350002,1200,,,,-0.0703125,-0.00703125,-0.966015625,0.014332070127469329,0.6776054497746002,12.472405987842524,0.7296383352402842,2288,0,8.95506506472375,3.433546309413496,38.344944028471915,0.19736575588636898,0.07567329720767571,0.40448995562718737,-0.15969196109138767,-0.45744207026201317,0.2279296875,0.7261990584180646,0,0,1,1,0,0,0,0,,
19.88013376350003,1200,,,,-0.075390625,-0.0048828125,-0.9626953125,0.014505055074720465,0.7120182512743644,12.472218386142766,0.7275256474542109,2282,0,8.925978664763502,3.4665030393370926,38.83614653967614,0.20539827898281168,0.07976860184775114,0.4022692015502365,-0.1588677987442217,-0.4606914397165004,0.2353515625,0.7261944215249835,0.1,0,1,1,0,0,0,0,,
20.130335763500018,1200,,,,-0.0689453125,-0.02421875,-0.9623046875,0.014422064515275288,0.7335224644926455,12.472144399774583,0.7255614119105565,2280,0,8.908450822291892,3.443756423038436,38.65783657244401,0.21324253745560143,0.08234036207466792,0.4033118669405301,-0.15924359858382195,-0.4627219379767114,0.2365234375,0.7261526466936573,0,0,1,1,0,0,0,0,,
20.37930476350002,1200,,,,-0.0708984375,-0.0068359375,-0.958203125,0.013246212191979575,0.7399593984727008,12.472499764532282,0.7259393915675141,2279,0,8.919589849910063,3.1619702290566436,35.448402826301944,0.23405614070344472,0.08295697334195937,0.41081946491947435,-0.15831092807700353,-0.4633297343706054,0.2361328125,0.7261722410963419,0.1,0,1,1,0,0,0,0,,
20.628835763500014,1200,,,,-0.0734375,-0.001171875,-0.9619140625,0.013462185782424594,0.6969341587964303,12.472783522732596,0.7273358842773219,2280,0,8.925650884462424,3.2143696905884718,36.01258998720563,0.21684096829349908,0.0780852238530034,0.4101193148357175,-0.15906683936720328,-0.45926715028900944,0.234375,0.7261878880568197,0.1,0,1,1,0,0,0,0,,
20.881679263500025,1200,,,,-0.0712890625,-0.011328125,-0.951953125,0.013647045662486345,0.6765656937474347,12.472440028343275,0.7294071755292247,2280,0,8.953421627675485,3.2586871695559934,36.39690725091309,0.20771770900846462,0.0755639633180733,0.40855389183519125,-0.15888178471576392,-0.4573438930916711,0.2349609375,0.7265402779946097,0,0,1,1,0,0,0,0,,
21.13076776350002,1200,,,,-0.07109375,-0.006640625,-0.956640625,0.01439492915415318,0.6795720633146868,12.471435393170255,0.7247569002798542,2281,0,8.905275073131916,3.438418266163569,38.611032068329486,0.1976238661553818,0.07631193166304594,0.40356506781831125,-0.15929092763882552,-0.4576277643551251,0.232421875,0.7263256412288844,0,0,1,1,0,0,0,0,,
21.380936763500028,1200,,,,-0.075,-0.0103515625,-0.965625,0.013994557779812847,0.7357342041603697,12.471447067096388,0.7247460435464064,2281,0,8.896175216539442,3.342434199060057,37.57180334155319,0.22016376900834778,0.08270276815157401,0.40568503536556627,-0.15859757862855692,-0.46293077768183205,0.23125,0.7262049787366893,0.1,0,1,1,0,0,0,0,,
21.629541763500033,1200,,,,-0.0689453125,-0.02265625,-0.959765625,0.013834495493689761,0.7418599087352261,12.471323139109742,0.7299593254950022,2285,0,8.970711437886326,3.3104986186944823,36.90423086237065,0.22414356394558,0.08269862509104939,0.4075757288839833,-0.15921879201884112,-0.4635091867756945,0.2349609375,0.7265266908641649,0,0,1,1,0,0,0,0,,
21.881258263500033,1200,,,,-0.066796875,-0.00625,-0.96875,0.01323438084276804,0.7231204591954624,12.471900526864095,0.7292434457363525,2285,0,8.952679834729693,3.166562982909025,35.369438308653734,0.22833840008751227,0.08077288345186226,0.41239451259979604,-0.1595929639336467,-0.4617397465594184,0.236328125,0.7267541125356541,0,0,1,1,0,0,0,0,,
22.13545076350002,1200,,,,-0.0708984375,-0.0203125,-0.9515625,0.014090812448285722,0.6672031979510932,12.472082473595215,0.7294579011339646,2280,0,8.934386164812368,3.3639775657957975,37.65343642963265,0.19838500870906903,0.07467837930594605,0.40574589523043925,-0.15925562547282887,-0.4564598555668969,0.234375,0.7269942783301777,0.1,0,1,1,0,0,0,0,,
22.380243263500024,1200,,,,-0.0703125,-0.009765625,-0.962109375,0.014361837117264385,0.7057345029006837,12.472021113750866,0.7296318078203159,2280,0,8.933535287597246,3.4295515569473856,38.389721911942374,0.20578073834829874,0.07899725585996924,0.40369840305529775,-0.15919754550798443,-0.4600981076093988,0.2302734375,0.7271312062125609,0.2,0,1,1,0,0,0,0,,
22.633429263500016,1200,,,,-0.0681640625,-0.0099609375,-0.951953125,0.014419493111492945,0.7268142600506297,12.471864910318086,0.7306278450320158,2279,0,8.97302116811001,3.440822267687378,38.34638279231447,0.21123071978812374,0.0809990013149738,0.40328657180578453,-0.1592056344298891,-0.46208852733711303,0.2263671875,0.7274239953080915,0.1,0,1,1,0,0,0,0,,
22.88052926350001,1200,,,,-0.067578125,-0.0119140625,-0.957421875,0.013446742114402738,0.7388900973679557,12.471841593825257,0.7298728834213181,2278,0,8.968986725736865,3.207922028825081,35.76608902506807,0.2303809963542016,0.08238197101815874,0.41062408793099897,-0.1594043938938064,-0.4632287674572481,0.224609375,0.7276437437524255,0,0,1,1,0,0,0,0,,
23.129179763500026,1200,,,,-0.0796875,-0.0146484375,-0.960546875,0.013283209056366766,0.6979221014568365,12.472116187738683,0.7294762080056086,2280,0,8.980727384529583,3.1710610275740323,35.30977466321634,0.22010470215168876,0.0777153154815165,0.411430196924778,-0.15906969241362248,-0.4593604350715207,0.22265625,0.7277126945869197,0,0,1,1,0,0,0,0,,
23.380372763500027,1200,,,,-0.075,-0.0068359375,-0.960546875,0.013460835083767452,0.6865302884359982,12.471867947341583,0.7311880165782011,2283,0,8.984245081045898,3.217483170432299,35.813406482731,0.21338166519550938,0.07641553941782428,0.4108700259775178,-0.15970487583117404,-0.45828478276633433,0.22421875,0.7280502797827382,0,0,1,1,0,0,0,0,,
23.630267763500026,1200,,,,-0.0716796875,-0.025,-0.9552734375,0.014601535742473451,0.6879826095367061,12.471837788162011,0.7276652742979852,2278,0,8.941708309493254,3.4837404473886897,38.96047969600219,0.1974980866696786,0.07694064320257844,0.40250956257839726,-0.15968185937680748,-0.45842191568248997,0.2220703125,0.7279517076002066,0,0,1,1,0,0,0,0,,
23.880503263500025,1200,,,,-0.06328125,-0.015234375,-0.9640625,0.014370807676413234,0.721855176322745,12.471683673402396,0.7287345634675447,2257,0,8.966914069179284,3.396443837013249,37.87812132135555,0.21274700220541046,0.0805006870621756,0.40397739665894716,-0.1594942657810397,-0.4616202744054897,0.221875,0.7279794561516294,0,0,1,1,0,0,0,0,,
24.129315263500015,1200,,,,-0.072265625,-0.0201171875,-0.948046875,0.01409033042252086,0.7343304595776176,12.472292194694814,0.7292883651190067,2280,0,8.963707186752321,3.3644790478665776,37.5345122878803,0.21827078266471284,0.08192542299465276,0.4063263389933079,-0.15975248821749027,-0.46279823151963917,0.2234375,0.7281896493516565,0,0,1,1,0,0,0,0,,
24.380302263500027,1200,,,,-0.06953125,-0.015234375,-0.956640625,0.013171399868001648,0.734948214545483,12.472523916985022,0.7237871197004206,2278,0,8.892417633454755,3.1421652688580903,35.334799050671954,0.23393073167277637,0.08264804848905453,0.4126916426125663,-0.15945258618018693,-0.46285656196748004,0.223046875,0.7277446545705845,0.2,0,1,1,0,0,0,0,,
24.632025763500017,1200,,,,-0.076171875,-0.01953125,-0.9591796875,0.01346574999043978,0.6922383727627038,12.472067931173195,0.726223972115271,2278,0,8.91626280682677,3.212681338888335,36.03042522681743,0.21559100049383617,0.07764031526485252,0.41045852945718303,-0.15938140713771948,-0.458823758788236,0.219140625,0.7275937012888252,0.1,0,1,1,0,0,0,0,,
24.87925476350003,1200,,,,-0.0693359375,-0.0169921875,-0.95703125,0.013720130941171587,0.6839693286915584,12.472261526967085,0.7282783038687779,2277,0,8.944375733560529,3.2714978621242503,36.576161054218225,0.20906955639641178,0.07646950613310345,0.40794484985373314,-0.15881711057564565,-0.4580429685575199,0.21640625,0.7277203471449674,0.1,0,1,1,0,0,0,0,,
25.13169026350002,1200,,,,-0.0748046875,-0.0125,-0.957421875,0.014640889471473009,0.6877469316552424,12.472287472074544,0.7290928715299173,2277,0,8.952685924620491,3.4912888831051,38.99700947274272,0.19698789093319172,0.076819450154678,0.40192157360103986,-0.15942307846487,-0.45839966220483774,0.2123046875,0.7278240618290057,0,0,1,1,0,0,0,0,,
25.379519763500014,1200,,,,-0.064453125,-0.021484375,-0.9595703125,0.0146564610370901,0.7288306176431818,12.472273843751307,0.7323199294968864,2281,0,8.999613219376318,3.5011565602565105,38.90427099914992,0.20817086203553506,0.08098686408894701,0.4013486580199027,-0.1590276423073657,-0.46227891842662094,0.21796875,0.7282156593736923,0.4,0,1,1,0,0,0,0,,
25.630801763500006,1200,,,,-0.075390625,-0.01328125,-0.9580078125,0.014739936427718078,0.7438165400420619,12.47210355567134,0.7248341914263989,2278,0,8.903081185368157,3.5160510097636815,39.492782433283715,0.21154906207779034,0.08354676493101833,0.40185049390952504,-0.1599850640116746,-0.463693938313641,0.2228515625,0.7278758484804363,0.1,0,1,1,0,0,0,0,,
25.882471763500018,1200,,,,-0.0625,-0.0095703125,-0.9607421875,0.013390047349540024,0.742509498505708,12.471890449702295,0.7267795287265904,2278,0,8.92119440789664,3.1936088330250625,35.79902657368835,0.232517280047328,0.08323212575538289,0.4108446033052905,-0.15923758601750235,-0.4635705231698898,0.2201171875,0.7277797093559119,0,0,1,1,0,0,0,0,,
26.131318263500027,1200,,,,-0.0646484375,0.00625,-0.9404296875,0.013481008079890297,0.6870346120007503,12.471905336486913,0.7381458270530274,2286,0,9.03135248014272,3.228051958887778,35.743571017183406,0.21297857199407583,0.07610071256471068,0.41078352804710044,-0.15975730930783372,-0.45833240264949004,0.221875,0.7285391841624337,0,0,1,1,0,0,0,0,,
26.379934763500025,1200,,,,-0.073046875,0.00703125,-0.966796875,0.013755871079495021,0.6918865689634784,12.472810291732085,0.735338310247858,2288,0,9.009745253451692,3.2957855025565452,36.5793331470755,0.20996655813137818,0.07679885034015815,0.40943437835587976,-0.1603248136134077,-0.4587905403209983,0.236328125,0.7292866867156038,0,0,1,1,0,0,0,0,,
26.631750763500015,1200,,,,-0.0732421875,-0.0328125,-0.947265625,0.014704394384073565,0.7033048071916236,12.472831665499658,0.7311649901801418,2278,0,8.973488084685913,3.508205853192872,39.09567174631575,0.20050282949641557,0.07837625079227563,0.40210413843354526,-0.15997988046571304,-0.4598686877808279,0.2392578125,0.7293087496589431,0,0,1,1,0,0,0,0,,
26.88502026350003,1200,,,,-0.062109375,-0.006640625,-0.96875,0.014096364479872591,0.7475135475191487,12.473430719076466,0.727721119901849,2277,0,8.936957235017942,3.361486458952201,37.610896428672774,0.22266849421337753,0.08364635607734985,0.4062230712813407,-0.15970151712649572,-0.4640430218710822,0.2310546875,0.7291534236248066,0.1,0,1,1,0,0,0,0,,
27.12932226350001,1200,,,,-0.0728515625,-0.01328125,-0.9591796875,0.013605732981032102,0.7359434223342693,12.472299408145398,0.7365709614987693,2281,0,9.038457329397302,3.2504021439017494,35.963633797979426,0.22642101622698893,0.08143255197542286,0.4098894038988881,-0.1597720293213104,-0.46295053274721365,0.2275390625,0.7296864248152064,0,0,1,1,0,0,0,0,,
27.380121763500018,1200,,,,-0.0685546875,0.0001953125,-0.9681640625,0.013531435198578193,0.7213386086550506,12.473168746063838,0.7324408436329083,2284,0,8.991132263264621,3.236909785826362,36.00111109239832,0.2228460359916766,0.08022741542704512,0.41023378827560686,-0.1596011433153173,-0.46157149839402223,0.229296875,0.730031433562097,0,0,1,1,0,0,0,0,,
27.62949226350002,1200,,,,-0.0708984375,-0.0109375,-0.9572265625,0.014239582113162697,0.678089609298267,12.473377828324153,0.727748017978907,2279,0,8.940993125973879,3.3989708208491094,38.01703069585278,0.1997394839513724,0.0758398802309303,0.40484348566248823,-0.1594144990178505,-0.4574877861903521,0.2330078125,0.7297387920454164,0,0,1,1,0,0,0,0,,
27.880604263500032,1200,,,,-0.076171875,-0.0072265625,-0.9626953125,0.01448534714432571,0.7218206155360335,12.47316519053355,0.7240565220651485,2279,0,8.887538721669086,3.456459747709008,38.890574227030726,0.208961202627894,0.08121779633764697,0.4036352111772817,-0.15992024544164743,-0.46161701106278674,0.2310546875,0.729261348114683,0.1,0,1,1,0,0,0,0,,
28.128866763500014,1200,,,,-0.07421875,-0.017578125,-0.9533203125,0.013952965683806223,0.7398643603289938,12.47326719723824,0.7268343380107843,2278,0,8.91507547805313,3.328747482619159,37.33863521856638,0.22226532594158072,0.08299095713287648,0.40674594668778363,-0.15924957073846763,-0.4633207605577301,0.2279296875,0.7291015331369213,0,0,1,1,0,0,0,0,,
28.38059726350001,1200,,,,-0.07421875,-0.0052734375,-0.958984375,0.013392672559339675,0.7376071941208205,12.473126184030722,0.7291489610750133,2281,0,8.958886894953308,3.199040378043862,35.70972084871945,0.2306801212153303,0.08233393820112311,0.41096016047740563,-0.15935362510153936,-0.4631076315298423,0.225390625,0.7291481957617062,0.2,0,1,1,0,0,0,0,,
28.629645263500038,1200,,,,-0.06796875,-0.0138671875,-0.9578125,0.013354244239589188,0.6970340566147304,12.473139521315833,0.7247976668889423,2280,0,8.91022775058153,3.1884388818934446,35.782992322571125,0.21872753158347102,0.07823241128225394,0.41167193840340205,-0.15972483943934299,-0.45927658296828006,0.223046875,0.7287268246712763,0,0,1,1,0,0,0,0,,
28.88025676350002,1200,,,,-0.0716796875,0.0037109375,-0.9625,0.013746793727044862,0.6787298552113402,12.473509624277105,0.7255580647764789,2280,0,8.924690399779148,3.2821488093531244,36.77614056046842,0.20679471001426666,0.07605081935113828,0.4093208733920445,-0.160169945197208,-0.4575482403069201,0.2236328125,0.7285283370862544,0,0,1,1,0,0,0,0,,
29.129766763500022,1200,,,,-0.069921875,-0.0138671875,-0.9521484375,0.014447520061948443,0.6762348305269056,12.473118457989091,0.7295515230112587,2281,0,8.956888592120777,3.4507404044242684,38.5243312821938,0.19613203022483966,0.07549965345108793,0.4035430155993655,-0.15960283657012045,-0.4573126519024756,0.2216796875,0.728601565228972,0.1,0,1,1,0,0,0,0,,
29.379251263500016,1200,,,,-0.0728515625,-0.000390625,-0.9662109375,0.014522499804315248,0.7331716301347162,12.47318934495605,0.7288690864953354,2282,0,8.935014341814192,3.470975072268595,38.844565904550656,0.21145777884894745,0.08206195267334974,0.40306290493820446,-0.1596611218927262,-0.46268881104729687,0.22265625,0.7287104762721404,0,0,1,1,0,0,0,0,,
29.63075926350002,1200,,,,-0.07421875,-0.0146484375,-0.953515625,0.01383706043494021,0.7396623894818145,12.473406713345458,0.728491306754248,2256,0,8.930332649086589,3.269193431618638,36.60711151480517,0.22643410235552452,0.08282669621829726,0.40729079085823183,-0.1589895333740457,-0.46330168980867975,0.2220703125,0.7286203264489177,0.1,0,1,1,0,0,0,0,,
29.880334263500014,1200,,,,-0.076953125,-0.0076171875,-0.9642578125,0.013517608390155403,0.7236935697011654,12.47343292301795,0.7272173752173552,2278,0,8.91801649278749,3.2249604744178875,36.16142287078929,0.22443878783580168,0.0811498540526452,0.4102336994668911,-0.15951406882166982,-0.46179386153088586,0.2212890625,0.7285645933866262,0.2,0,1,1,0,0,0,0,,
30.129124763500023,1200,,,,-0.07578125,-0.0109375,-0.9599609375,0.014144113982924523,0.6752538804642699,12.4727284835864,0.7340165004702779,2287,0,8.994751666852022,3.387879943080075,37.65742905910757,0.2000757986943594,0.07508667293970862,0.4058371985865203,-0.1596696308878582,-0.45722002738395373,0.21953125,0.7289423228196826,0,0,1,1,0,0,0,0,,
30.379973263500027,1200,,,,-0.0703125,0.0009765625,-0.95703125,0.015105275959853259,0.6855805181400326,12.472893215878829,0.7321075655338432,2283,0,8.99083450269255,3.6113101693405,40.16505309405634,0.1900370702967674,0.07625542647427916,0.3996641535418416,-0.16040083108313594,-0.4581951023435268,0.2263671875,0.7292586389621956,0,0,1,1,0,0,0,0,,
30.628790263500026,1200,,,,-0.0666015625,-0.021875,-0.9623046875,0.014335561204146908,0.7146343374700034,12.473815549472652,0.7280311723782847,2280,0,8.94561678313013,3.422633642658704,38.259961755647424,0.2088285437479167,0.07988685837943445,0.40368095988566904,-0.15901719539238682,-0.46093845914543224,0.2232421875,0.7291025581822023,0,0,1,1,0,0,0,0,,
30.879906263500033,1200,,,,-0.0734375,0.003125,-0.9625,0.013807634326864326,0.726647603798534,12.473347070276132,0.7277893738420179,2279,0,8.942514072826151,3.2950212662473284,36.84632105012248,0.2207057661669474,0.08125802076488649,0.4082341009668144,-0.15961679193745332,-0.4620727911078216,0.2169921875,0.728995058167365,0.1,0,1,1,0,0,0,0,,
31.129536763500028,1200,,,,-0.0634765625,-0.0142578125,-0.958984375,0.01323620770343088,0.7042156619588209,12.473136455207406,0.7264351857753042,2278,0,8.912496533569566,3.157162117793521,35.42701155242738,0.22318211143179081,0.07901005661768086,0.4116381561302883,-0.15895306154556857,-0.45995469367192127,0.2126953125,0.7288426215487904,0,0,1,1,0,0,0,0,,
31.382117763500013,1200,,,,-0.0701171875,-0.0076171875,-0.9640625,0.013791955678240504,0.6776826397657566,12.473373432635535,0.7265726405516703,2277,0,8.908960406992684,3.2883383622105122,36.910481601160136,0.20610816809739535,0.0760688001085693,0.4081882630852355,-0.15947866522267087,-0.45744935879385384,0.20703125,0.7285956043360781,0.1,0,1,1,0,0,0,0,,
31.630266263500022,1200,,,,-0.0677734375,-0.0234375,-0.9556640625,0.014157410842665991,0.6685061016302762,12.473952090844383,0.7278451970262555,2277,0,8.942917923570498,3.376276194940467,37.75452762860613,0.19806352202189415,0.0747524254051048,0.40469780104229097,-0.15877201100623203,-0.45658288000061836,0.20546875,0.7286152140931572,0.1,0,1,1,0,0,0,0,,
31.88245826350002,1180,,,,-0.076171875,-0.0033203125,-0.9640625,0.014703296287404485,0.7011650674961089,12.4737095151572,0.7259153840789228,2277,0,8.918309881564676,3.505297616261815,39.30469641341962,0.2000731938107652,0.07862082055281853,0.40189389067737835,-0.15979189956630196,-0.4596666465489566,0.20390625,0.7283273396971179,0,0,1,1,0,0,0,0,,
32.13044226350002,1000,,,,-0.07578125,-0.0162109375,-0.95390625,0.013463926789395425,0.7035737441631948,12.482278550478123,0.5227088681969415,1963,0,6.3745824648578715,2.7846931234663743,45.356368136738816,0.2689777875591571,0.12139549886703825,0.40412042516073654,-0.1539113693796299,-0.45989408169072543,0.1986328125,0.7138882103296484,0.1,0,1,1,0,0,0,0,,
32.380467263500016,1000,,,,-0.0716796875,-0.00078125,-0.955859375,0.004790264129356336,0.574383342923612,12.494753675661752,0.17987119705876536,1414,0,2.1074249891132,0.7712753170290343,31.114246676353208,0.15411044647883043,0.2830885152110948,0.4280986171636929,-0.11998759385568906,-0.4476955007758958,0.1771484375,0.6673487906813934,0.1,0,1,1,0,0,0,0,,
32.632087763500024,1000,,,,-0.067578125,-0.0123046875,-0.9654296875,-0.002354568290537532,0.3323686782909979,12.498087657083975,0.0956615963570483,1139,0,1.054960192365754,0.28084522999149797,27.32465291586102,0.3005857026680721,0.3115447657601013,0.46265466858419063,-0.10479315933339965,-0.42484368329743305,0.1509765625,0.622243950642807,0.2,0,1,1,0,0,0,0,,
32.880616263500016,1000,,,,-0.0671875,-0.01953125,-0.954296875,-0.002663731623825009,0.1647977192182417,12.49857689993283,0.07870537550954912,1096,0,0.8518914178819854,0.3071110018764347,35.92199700660953,0.5448144940522541,0.19248939113383676,0.4632029381825915,-0.1033200959529087,-0.4090210843766832,0.129296875,0.5810891999878078,0,0,1,1,0,0,0,0,,
33.13007976350002,1000,,,,-0.0697265625,-0.0166015625,-0.958203125,-0.0023240319236378353,0.08810080491839255,12.498431464268037,0.07513667147174907,0,0,0.7987546609625671,0,0,0,0,0.4614371295207297,-0.10393671226594654,-0.40177911046819287,0.1138671875,0.5429006150127056,0,0,1,1,0,0,0,0,,
33.38013176350001,1000,,,,-0.0615234375,-0.01640625,-0.9625,-0.002160313837272527,0.04905461580886625,12.498840586236948,0.07622170269948673,0,0,0.8174342778490523,0,0,0,0,0.46147286963011097,-0.10499760373014688,-0.39809224137654114,0.1056640625,0.5075816448890821,0,0,1,1,0,0,0,0,,
33.62882776350003,1000,,,,-0.06640625,-0.0125,-0.969140625,-0.002168910634445649,0.033822282567167454,12.499056435506068,0.07074021831503571,0,0,0.7520854607308864,0,0,0,0,0.46208516625751883,-0.10547084113717475,-0.39665395457049646,0.098046875,0.47475142572724105,0,0,1,1,0,0,0,0,,
33.88042676350001,1000,,,,-0.0625,-0.0341796875,-0.952734375,-0.0020545464464276865,0.025109311313308173,12.499084039684487,0.06866321020018104,0,0,0.7225941807142053,0,0,0,0,0.46250611130198943,-0.10655294892132543,-0.3958312472808762,0.088671875,0.44384176598022956,0,0,1,1,0,0,0,0,,
34.132429263500015,1000,,,,-0.0625,-0.038671875,-0.948046875,-0.001080600422112389,0.01701056471757273,12.49896971509125,0.06955302067709554,0,0,0.7548976772193675,0,0,0,0,0.45972111936716986,-0.11028247942038012,-0.39506653709568545,0.0794921875,0.4154154895866693,0,0,1,1,0,0,0,0,,
34.38070226350002,1000,,,,-0.0625,-0.0390625,-0.9482421875,-0.0002720812459215248,0.014252373657702488,12.498941051187959,0.06942098327868365,0,0,0.7549610158099637,0,0,0,0,0.4561877996012482,-0.11232666496298009,-0.3948060996599352,0.0724609375,0.3894003104500232,0,0,1,1,0,0,0,0,,
34.63091226350003,1000,,,,-0.0625,-0.0392578125,-0.94765625,-0.00003830602412512402,0.011088754824792239,12.499267796440044,0.06988721250915703,0,0,0.7492432598637546,0,0,0,0,0.45498950394129023,-0.11276556580479144,-0.39450738040566674,0.0677734375,0.3652540483882663,0,0,1,1,0,0,0,0,,
34.88007426350002,1000,,,,-0.0625,-0.0392578125,-0.9474609375,-0.000027245199596496155,0.0098478221787812,12.499496594260254,0.06640124674331885,0,0,0.6994863920579433,0,0,0,0,0.4551173469711923,-0.11294526256272967,-0.3943902074799155,0.0650390625,0.3427608867952329,0,0,1,1,0,0,0,0,,
35.13355226350001,1000,,,,-0.0625,-0.038671875,-0.9474609375,-0.0000010363910856477694,0.013780115767402545,12.499669946834596,0.06759359396011355,0,0,0.7241965586611118,0,0,0,0,0.4549629393704115,-0.11297718740084232,-0.3947615075228088,0.0626953125,0.32165082699264724,0,0,1,1,0,0,0,0,,
35.37959526350002,1000,,,,-0.0625,-0.0390625,-0.948046875,0.00009942620621584545,0.01341536116348165,12.499327290221265,0.06491424880116235,0,0,0.6916240395116752,0,0,0,0,0.4545631703654319,-0.11326500300244688,-0.39472706619816467,0.0611328125,0.3025478344179719,0,0,1,1,0,0,0,0,,
35.6300812635,1000,,,,-0.0625,-0.038671875,-0.9484375,0.000040555404292506686,0.009599537158833528,12.499625315881149,0.06710975177259974,0,0,0.708813172884819,0,0,0,0,0.454660787924457,-0.1129786602453654,-0.3943667635949464,0.060546875,0.28472038192637245,0,0,1,1,0,0,0,0,,
35.879676763500015,1000,,,,-0.0625,-0.039453125,-0.9482421875,0.00003584138811099679,0.012742469171630865,12.499294338067465,0.06540102830962377,0,0,0.7031028765622308,0,0,0,0,0.45472949644946326,-0.11300817359752849,-0.3946635295318893,0.059765625,0.26819739516799557,0.1,0,1,1,0,0,0,0,,
36.13023726350003,1000,,,,-0.0625,-0.0390625,-0.948046875,0.000012621673443539253,0.014131097319823028,12.499406343795883,0.06345284166418816,0,0,0.6711295674798745,0,0,0,0,0.4549620812634781,-0.11306238464894114,-0.3947946483508094,0.05859375,0.25266044210986865,0.2,0,1,1,0,0,0,0,,
36.37943026350001,1000,,,,-0.0625,-0.0390625,-0.9478515625,0.000029820701716957726,0.01828082277512417,12.499272889981947,0.06597760862046208,0,0,0.7011552176452378,0,0,0,0,0.45482691160793404,-0.11305418842308057,-0.3951864790228648,0.05859375,0.23862568529740505,0,0,1,1,0,0,0,0,,
36.63024726350001,1000,,,,-0.0625,-0.0392578125,-0.948046875,0.0000339403929044467,0.017718390951335008,12.499776980307951,0.06462857218591654,0,0,0.6819014155412524,0,0,0,0,0.45477512643604834,-0.1130355104907895,-0.3951333723675272,0.05859375,0.2254232082975122,0,0,1,1,0,0,0,0,,
36.87867176350001,1000,,,,-0.0625,-0.0392578125,-0.948046875,0.00005525474352677197,0.010194641567640678,12.500259177899565,0.06721810769686128,0,0,0.7241661698746454,0,0,0,0,0.45470447203545483,-0.11310877027251172,-0.39442295530279725,0.05859375,0.21357044059480174,0.2,0,1,1,0,0,0,0,,
37.131409263500025,1000,,,,-0.0625,-0.0392578125,-0.9478515625,0.00008158054982358068,0.00812864928075725,12.499706079241468,0.06512125139004873,0,0,0.6921094027137068,0,0,0,0,0.45451937909087914,-0.11311500411663085,-0.39422787754284655,0.05859375,0.20221800476434731,0,0,1,1,0,0,0,0,,
37.38029276350003,1000,,,,-0.0625,-0.0390625,-0.948046875,0.0000988842278324832,0.014101327291882772,12.49961037982149,0.0644895346876316,0,0,0.6761252545677563,0,0,0,0,0.45445058947437306,-0.11316463483268746,-0.39479183736724427,0.05859375,0.19181531230687926,0.1,0,1,1,0,0,0,0,,
37.631684763500004,1000,,,,-0.0625,-0.038671875,-0.9484375,0.00004956603570007719,0.011667494211348894,12.499749686886423,0.06773681959442832,0,0,0.7184872059204113,0,0,0,0,0.45471755575451195,-0.11308424512652718,-0.3945620268745047,0.05859375,0.18250287515718971,0.1,0,1,1,0,0,0,0,,
37.88044676350002,1000,,,,-0.0625,-0.038671875,-0.9482421875,-0.0000025957103521244294,0.009838448243899048,12.499704208474117,0.06467900681848145,0,0,0.6943066512102138,0,0,0,0,0.4550189060902977,-0.11301557641833415,-0.39438932236227464,0.05859375,0.17357312900057,0.1,0,1,1,0,0,0,0,,
38.13142426350002,1000,,,,-0.0625,-0.038671875,-0.948046875,-0.0000486273196343299,0.009153171945737127,12.499502395880231,0.0638889536834997,0,0,0.6810348239935324,0,0,0,0,0.4551880871205795,-0.1128716502266091,-0.39432461632922633,0.05859375,0.16525134708219805,0.1,0,1,1,0,0,0,0,,
38.38087426350002,1000,,,,-0.0625,-0.0384765625,-0.948046875,-0.0000576601122325085,0.011193431095746297,12.499406980682338,0.06474348151901113,0,0,0.6953650973138509,0,0,0,0,0.45495552677136947,-0.11261452809838343,-0.3945172642820912,0.05859375,0.15768191066158982,0.2,0,1,1,0,0,0,0,,
38.63269726350003,1000,,,,-0.0625,-0.0390625,-0.948046875,-0.000016192427109020592,0.010381990754546289,12.499189738637064,0.06455619246813436,0,0,0.6808798494083949,0,0,0,0,0.45485211492840555,-0.1127863805722527,-0.3944406454267838,0.05859375,0.15061602952988265,0,0,1,1,0,0,0,0,,
38.88038426350003,1000,,,,-0.0625,-0.0390625,-0.94765625,-0.00000861508236632797,0.013161557737328182,12.499133577324326,0.062489199038314514,0,0,0.6563413656504558,0,0,0,0,0.4547649081531914,-0.11275895197762634,-0.3947031012472033,0.05859375,0.14397580324864662,0,0,1,1,0,0,0,0,,
39.12965976350002,1000,,,,-0.0625,-0.038671875,-0.9482421875,0.000034844376512511985,0.02203701740472421,12.499360891498533,0.062475723226840287,0,0,0.6530411221157362,0,0,0,0,0.45467176430842937,-0.11295217976225887,-0.39554115122514444,0.05859375,0.137841617160986,0.1,0,1,1,0,0,0,0,,
39.37915976350003,1000,,,,-0.0625,-0.0388671875,-0.9484375,0.000019944519664957215,0.017892827544058947,12.499608136940813,0.06086968965372293,0,0,0.6364046520012164,0,0,0,0,0.45483174198746107,-0.11299620774649655,-0.39514984324206925,0.05859375,0.13203475145943364,0,0,1,1,0,0,0,0,,
39.630370763500025,1000,,,,-0.0625,-0.0390625,-0.94765625,0.000024154733138935312,0.014026741728008489,12.499231518090337,0.0610155675981844,0,0,0.6606076962940289,0,0,0,0,0.4549266043927894,-0.11310439668661712,-0.3947847947539597,0.05859375,0.1266074902319061,0,0,1,1,0,0,0,0,,
39.88002576350003,1000,,,,-0.0625,-0.03984375,-0.9486328125,0.00013024944217691477,0.018644811329316217,12.499393228523585,0.06585078769185464,0,0,0.7037243391403407,0,0,0,0,0.45422429542705445,-0.11316709290401286,-0.3952208480145839,0.05859375,0.12208359032812492,0,0,1,1,0,0,0,0,,
40.131206263500005,1000,,,,-0.0625,-0.0388671875,-0.9482421875,0.00007571071760184038,0.020023835738064457,12.49949594834272,0.06916077099170184,0,0,0.7320546666582979,0,0,0,0,0.4546947578174672,-0.11322911268545126,-0.3953510600169635,0.05859375,0.11810724247475937,0,0,1,1,0,0,0,0,,
40.37882876350004,1000,,,,-0.0625,-0.0384765625,-0.9486328125,0.000009760118053958261,0.018167395467203272,12.499749669442032,0.06343805621407965,0,0,0.6533076867135257,0,0,0,0,0.45482212645199427,-0.11292384650160867,-0.3951757688448613,0.05859375,0.11397659894991019,0.1,0,1,1,0,0,0,0,,
40.63365426350001,1000,,,,-0.0625,-0.038671875,-0.9486328125,0.000012800079679205787,0.01149827622364368,12.499550295144484,0.06367181030724421,0,0,0.6572787889872627,0,0,0,0,0.4546113551448389,-0.11276145128640247,-0.39454604875774485,0.05859375,0.11010251795254695,0.2,0,1,1,0,0,0,0,,
40.87871026350002,1000,,,,-0.0625,-0.0390625,-0.9486328125,0.000056547249510431304,0.00845103900646984,12.4999836315565,0.06374377428880015,0,0,0.6742066605953096,0,0,0,0,0.4546968406886549,-0.11311033034936457,-0.3942583186369021,0.05859375,0.10667612775694593,0.2,0,1,1,0,0,0,0,,
41.12879076350002,1000,,,,-0.0625,-0.0390625,-0.948046875,0.000013282219613909436,0.009254207838671768,12.499324227652169,0.06354765816890935,0,0,0.6645537736177062,0,0,0,0,0.45501793450501743,-0.11311464328549536,-0.3943341564692324,0.05859375,0.10339515632213785,0,0,1,1,0,0,0,0,,
41.38185076350001,1000,,,,-0.0625,-0.0388671875,-0.9490234375,-0.0000033257927772032794,0.01025775005103443,12.499133784239916,0.06683356516557633,0,0,0.6999797224747215,0,0,0,0,0.45505478391058907,-0.11304188181280139,-0.39442891421254367,0.05859375,0.10062720964283922,0,0,1,1,0,0,0,0,,
41.63035726350002,1000,,,,-0.0625,-0.0390625,-0.948046875,0.000046884205105565595,0.013028787257012783,12.49892930810644,0.0655849635442924,0,0,0.6889455702895253,0,0,0,0,0.4548206285063376,-0.11315614045735116,-0.3946905646234938,0.05859375,0.09801430690214027,0,0,1,1,0,0,0,0,,
41.88082276350003,1000,,,,-0.0625,-0.0388671875,-0.946875,0.000024833031491936355,0.01664490090020296,12.499073186484624,0.06419076262809564,0,0,0.6782949080156998,0,0,0,0,0.45487295013585854,-0.11306245586542978,-0.3950320099201289,0.05859375,0.09544115695031373,0,0,1,1,0,0,0,0,,
42.13115526350002,1000,,,,-0.0625,-0.0388671875,-0.9482421875,0.00003503832919683541,0.011844614472505285,12.499144801484887,0.06649546473433797,0,0,0.7019062592463012,0,0,0,0,0.4548562474068823,-0.11311228250654984,-0.39457875114981183,0.05859375,0.09322291681100689,0.2,0,1,1,0,0,0,0,,
42.37972576350002,1000,,,,-0.0625,-0.0390625,-0.947265625,0.00006525240777069742,0.010677673157735611,12.499108838895346,0.06748510241663899,0,0,0.7169854189432453,0,0,0,0,0.45485112107248993,-0.11329797394612548,-0.3944685647279531,0.05859375,0.09131618780838036,0.1,0,1,1,0,0,0,0,,
42.630788263500015,1000,,,,-0.0625,-0.0388671875,-0.94765625,0.000021979831484770434,0.013196122090313981,12.498913563423466,0.06712229212437856,0,0,0.7134919951840739,0,0,0,0,0.45505851728412017,-0.11320431960074759,-0.3947063649266457,0.05859375,0.08952079065060078,0.1,0,1,1,0,0,0,0,,
42.88058676350001,1000,,,,-0.0625,-0.0392578125,-0.9482421875,0.0000030488610994574797,0.020275044406072622,12.499193035769228,0.06376801805531607,0,0,0.6617596473320685,0,0,0,0,0.4550665078640386,-0.11309208803228829,-0.3953747799623605,0.05859375,0.08751433572677644,0.1,0,1,1,0,0,0,0,,
43.13098976350001,1000,,,,-0.0625,-0.03828125,-0.9482421875,0.000029886138170048673,0.013281549138321193,12.498980363339395,0.06303614986817371,0,0,0.6736129549799817,0,0,0,0,0.455046992201473,-0.1132441401800918,-0.3947144312283789,0.05859375,0.08566958978397508,0.2,0,1,1,0,0,0,0,,
43.381529263500035,1000,,,,-0.0625,-0.039453125,-0.9482421875,-0.000004941741484569762,0.0073779052974654,12.499100715846087,0.06313974711504275,0,0,0.6534672844292696,0,0,0,0,0.45518732803074247,-0.11314586528123452,-0.39415698983649505,0.05859375,0.08391740761967437,0,0,1,1,0,0,0,0,,
43.62894126350002,1000,,,,-0.0625,-0.0388671875,-0.948046875,-0.000010513385553888116,0.006624850163080874,12.498742339092438,0.06324153413769046,0,0,0.6688830612839054,0,0,0,0,0.4552363726213213,-0.11315304728319345,-0.39408588390368593,0.05859375,0.08239122506224701,0.2,0,1,1,0,0,0,0,,
43.87918376350002,1000,,,,-0.0625,-0.0388671875,-0.947265625,0.0000347841675416812,0.0031361379174538913,12.499446333381567,0.06392250973658296,0,0,0.6817380059219756,0,0,0,0,0.45483968459248425,-0.11309641893203175,-0.3937564682643776,0.05859375,0.08102512499124649,0,0,1,1,0,0,0,0,,
44.13028926350002,1000,,,,-0.0625,-0.03828125,-0.9494140625,0.000019865840471289035,0.0022566913123055763,12.499314572103922,0.064564851363195,0,0,0.6832440613919104,0,0,0,0,0.4547127135548384,-0.11289320182932046,-0.3936734280348386,0.05859375,0.0797668237846878,0.1,0,1,1,0,0,0,0,,
44.38133426350002,1000,,,,-0.0625,-0.038671875,-0.9478515625,-0.000009528976083814677,0.00679189732703636,12.498827801170837,0.06464196339947167,0,0,0.6759868527352043,0,0,0,0,0.45493935520081363,-0.11290344082487998,-0.3941016570441558,0.05859375,0.0786435242262187,0,0,1,1,0,0,0,0,,
44.631075263500016,1000,,,,-0.0625,-0.039453125,-0.9490234375,-0.00010763393533802256,0.01325369662985666,12.499336137807955,0.06445247660564798,0,0,0.6852708966005875,0,0,0,0,0.4555519509368146,-0.11281375222324938,-0.3947118013032843,0.05859375,0.07758039717015161,0.1,0,1,1,0,0,0,0,,
44.88139426350001,1000,,,,-0.0625,-0.038671875,-0.9484375,-0.000042748219131924227,0.016322195995210235,12.498804656728353,0.06424665981145998,0,0,0.6917256102089933,0,0,0,0,0.4553547616392743,-0.11305218652511446,-0.39500153906581326,0.05859375,0.07655094952322733,0,0,1,1,0,0,0,0,,
45.13329576350003,1000,,,,-0.0625,-0.03828125,-0.9478515625,-0.00005798446714953862,0.012822538315362928,12.498993469678712,0.06328377142925493,0,0,0.6795385615162275,0,0,0,0,0.45514955066449064,-0.11277958648092579,-0.39467108992274835,0.05859375,0.07551059501480643,0,0,1,1,0,0,0,0,,
45.38256526350002,1000,,,,-0.0625,-0.0390625,-0.94765625,0.00002634374934986292,0.0038366431070514313,12.499190200424007,0.06366887528451307,0,0,0.677845946341962,0,0,0,0,0.454932039997041,-0.11312285123992669,-0.3938226122592455,0.05859375,0.07465580511148044,0.1,0,1,1,0,0,0,0,,
45.6320587635,1000,,,,-0.0625,-0.0390625,-0.948046875,0.000052185069039110924,-0.0026555324571521832,12.499605336448742,0.06330563035527915,0,0,0.6704272499265203,0,0,0,0,0.45504873003550533,-0.1133859412931674,-0.39320959977400394,0.05859375,0.07376424335884756,0.1,0,1,1,0,0,0,0,,
45.882164263500016,1000,,,,-0.0625,-0.038671875,-0.9484375,0.00001376344053895114,-0.0030841170484458657,12.499209633981033,0.06676044939535031,0,0,0.7097821404081793,0,0,0,0,0.4551475309284173,-0.11322928345917387,-0.39316913141284415,0.05859375,0.07328312092108373,0,0,1,1,0,0,0,0,,
46.13007876350003,1000,,,,-0.0625,-0.0392578125,-0.9482421875,9.922757906359929e-7,0.00531269101682927,12.499299774215062,0.0650491440561017,0,0,0.6897070384729834,0,0,0,0,0.45525118469401094,-0.11323819728283877,-0.3939619855384429,0.05859375,0.07265440197366152,0.1,0,1,1,0,0,0,0,,
46.378035263500024,1000,,,,-0.0625,-0.0392578125,-0.9486328125,0.00002947521939300817,0.007941613154134346,12.498798582125318,0.06219692463370968,0,0,0.6539262633297016,0,0,0,0,0.45504824931653964,-0.11324263735249918,-0.3942102169790375,0.05859375,0.07185182737275016,0,0,1,1,0,0,0,0,,
46.630456263500015,1000,,,,-0.0625,-0.0392578125,-0.9482421875,0.000057261580799775386,0.00943221717104476,12.498794339251619,0.06077600272654127,0,0,0.6384321683041003,0,0,0,0,0.45477907359846476,-0.11318564636524608,-0.3943509646935564,0.05859375,0.07100448831426914,0,0,1,1,0,0,0,0,,
46.88054526350001,1000,,,,-0.0625,-0.0390625,-0.9478515625,0.00007143698782216955,0.013972239650449428,12.499065213428052,0.06099353710105759,0,0,0.6441701653904877,0,0,0,0,0.45465439997871665,-0.11316746507543296,-0.39477964848924696,0.05859375,0.07018448404321594,0,0,1,1,0,0,0,0,,
47.129986763500014,1000,,,,-0.0625,-0.0390625,-0.948046875,0.00011552110110605476,0.011362064907418284,12.49934900068558,0.06428050918728814,0,0,0.6644950197556501,0,0,0,0,0.4543215567066635,-0.113158186811071,-0.3945331872390364,0.05859375,0.06978524631452529,0,0,1,1,0,0,0,0,,
47.380173263500026,1000,,,,-0.0625,-0.0384765625,-0.9478515625,0.00013172169947100302,0.005580069290467822,12.498688459876291,0.06386392786403125,0,0,0.6755825357433128,0,0,0,0,0.4541688063424836,-0.11312856744820048,-0.39398723227097526,0.05859375,0.06937481293414514,0.1,0,1,1,0,0,0,0,,
47.630600263500014,1000,,,,-0.0625,-0.03828125,-0.9478515625,0.00011777883685238122,0.003704668730851525,12.498500407051555,0.06323732365636864,0,0,0.6682122962920924,0,0,0,0,0.45437741499241013,-0.11322049927750777,-0.3938101508062945,0.05859375,0.06890437352405313,0,0,1,1,0,0,0,0,,
47.88033076350002,1000,,,,-0.0625,-0.0388671875,-0.9482421875,0.0001062033971657911,0.001583721914304832,12.498402744763094,0.06382776565326734,0,0,0.6721430715230757,0,0,0,0,0.45465830668873586,-0.11338957922118428,-0.393609884059621,0.05859375,0.06848712446649403,0.1,0,1,1,0,0,0,0,,
48.12902576350002,1000,,,,-0.0625,-0.0390625,-0.9484375,0.00009052453024345002,0.00009352065588239932,12.499081715607293,0.06542164251877458,0,0,0.6834266282604802,0,0,0,0,0.45473102674160726,-0.11335355679490666,-0.393469174374878,0.05859375,0.06828756657510585,0.1,0,1,1,0,0,0,0,,
48.382290763500016,1000,,,,-0.0625,-0.0384765625,-0.9482421875,0.000035457771412589496,0.0003189933255936392,12.499262338180339,0.06358719157712811,0,0,0.6651577367950203,0,0,0,0,0.4547111439354919,-0.11298995415125632,-0.39349046424300416,0.05859375,0.06793370925416069,0,0,1,1,0,0,0,0,,
48.63038726350001,1000,,,,-0.0625,-0.0390625,-0.94765625,0.00009271246198488564,0.007961631893874856,12.49916334676124,0.06374784671491243,0,0,0.6622400165419645,0,0,0,0,0.4544056262096,-0.11308707848522508,-0.3942121072140255,0.05859375,0.06759450821050396,0,0,1,1,0,0,0,0,,
48.88009376350003,1000,,,,-0.0625,-0.0384765625,-0.9478515625,0.0001857920440049462,0.011460100133584871,12.498917067127202,0.06717259861073865,0,0,0.7298597573778334,0,0,0,0,0.4538463077850963,-0.11319103153575712,-0.394542444046256,0.05859375,0.06761122816381217,0.1,0,1,1,0,0,0,0,,
49.13141426350001,1000,,,,-0.0625,-0.0388671875,-0.948046875,0.0000064588735195470176,0.009111621025692383,12.49886678943537,0.06645769384714581,0,0,0.728338837658274,0,0,0,0,0.4549087856963311,-0.11297770868526795,-0.3943206929552341,0.05859375,0.0675307748812843,0,0,1,1,0,0,0,0,,
49.38166776350002,1000,,,,-0.0625,-0.0390625,-0.9484375,-0.00004683303682578502,0.007008579054296839,12.49911354431791,0.06295982784087836,0,0,0.6782012281394447,0,0,0,0,0.45537122160219445,-0.11304066074741015,-0.3941221168426964,0.05859375,0.06715462507228978,0,0,1,1,0,0,0,0,,
49.63096426350001,1000,,,,-0.0625,-0.0388671875,-0.948046875,-0.000021229266623164057,0.01310445377558223,12.49902308383567,0.06250955268548666,0,0,0.659497225401876,0,0,0,0,0.45536519164338707,-0.11319656598808925,-0.39469770930406173,0.05859375,0.0667594952217101,0.1,0,1,1,0,0,0,0,,
49.88173026350002,1000,,,,-0.0625,-0.0392578125,-0.948046875,0.0001463657230050968,0.015469027622572679,12.49885881652461,0.06407962356050774,0,0,0.6715390089768076,0,0,0,0,0.4542292663181251,-0.11327277730966652,-0.3949209801130758,0.05859375,0.06662475266785758,0,0,1,1,0,0,0,0,,
50.13412176350001,1000,,,,-0.0625,-0.0392578125,-0.9474609375,0.0001376677033502016,0.011965242668234934,12.49911059464156,0.06413161598241937,0,0,0.6772285833693645,0,0,0,0,0.4540849968269109,-0.113093800310949,-0.3945901412592324,0.05859375,0.06637745998076584,0.1,0,1,1,0,0,0,0,,
50.381153763500016,1000,,,,-0.0625,-0.0384765625,-0.9482421875,0.00010050339472951608,0.01300858123264372,12.498824336032479,0.06634696275452562,0,0,0.7083278236015286,0,0,0,0,0.45432747377292165,-0.11306879165104577,-0.39468865670447756,0.05859375,0.0664231240554118,0,0,1,1,0,0,0,0,,
50.63152776350002,1000,,,,-0.0625,-0.0388671875,-0.948828125,0.00007113206833522985,0.01740476420271608,12.49862080511691,0.0641298948782422,0,0,0.6821621063272096,0,0,0,0,0.4545501040915041,-0.11307572377033748,-0.39510375870247644,0.05859375,0.06625415397882653,0,0,1,1,0,0,0,0,,
50.88219376350002,1000,,,,-0.0625,-0.0392578125,-0.94765625,0.00001217598831391943,0.015777921655339713,12.49910046557849,0.060702423883639556,0,0,0.6432653413301175,0,0,0,0,0.45486952376524387,-0.11297986710311007,-0.39495014689959135,0.05859375,0.06576460291495793,0,0,1,1,0,0,0,0,,
51.130999263500016,1000,,,,-0.0625,-0.03828125,-0.9470703125,0.00003285757271087657,0.017821084321829328,12.498741286555267,0.06280536536285083,0,0,0.6733156831578179,0,0,0,0,0.45465175379527034,-0.11292244517519254,-0.3951430690119944,0.05859375,0.06557330583341894,0,0,1,1,0,0,0,0,,
51.38130976350002,1000,,,,-0.0625,-0.0390625,-0.9484375,0.00005519472787652318,0.01828727097374985,12.498756867508442,0.06278632761058327,0,0,0.6531638680757754,0,0,0,0,0.45471665769574665,-0.1131188873126728,-0.3951870878829035,0.05859375,0.06535597067075197,0,0,1,1,0,0,0,0,,
51.63132326350002,1000,,,,-0.0625,-0.0390625,-0.9484375,0.00004177612354498891,0.011391584116156296,12.499020361592923,0.0663328804623885,0,0,0.6835411686883085,0,0,0,0,0.4548898585205925,-0.11318362348007441,-0.3945359745394309,0.05859375,0.0654489756758641,0,0,1,1,0,0,0,0,,
51.88118826350002,1000,,,,-0.0625,-0.0392578125,-0.947265625,0.000056682960557688034,0.01050698151305024,12.499472069305323,0.06575386995660884,0,0,0.6916067548837148,0,0,0,0,0.45487836595542835,-0.11326751926473062,-0.39445244746367353,0.05859375,0.06550847243730383,0.1,0,1,1,0,0,0,0,,
52.131029763499996,1000,,,,-0.0625,-0.0390625,-0.948046875,0.000020830907822018716,0.006287288968023178,12.499267189836576,0.0643109681132226,0,0,0.6868711001627106,0,0,0,0,0.4549343738071049,-0.11309017449604039,-0.39405401026979275,0.05859375,0.06538433139692482,0,0,1,1,0,0,0,0,,
52.380294263500026,1000,,,,-0.0625,-0.038671875,-0.9486328125,-0.000011333149111221778,0.005015963543921808,12.499177893380216,0.06458084569399064,0,0,0.6788804081911215,0,0,0,0,0.4550709701597654,-0.1130054397679656,-0.39393396755836707,0.05859375,0.06533941544862672,0.1,0,1,1,0,0,0,0,,
52.634225263500035,1000,,,,-0.0625,-0.039453125,-0.9484375,0.000057776986460790166,0.006144317167039213,12.498775244885836,0.06566951735451731,0,0,0.6979882285045027,0,0,0,0,0.45469076880393233,-0.11311283854036884,-0.39404051040396604,0.05859375,0.06536312118268037,0,0,1,1,0,0,0,0,,
52.880457263500034,1000,,,,-0.0625,-0.0384765625,-0.94765625,0.00007498461234545518,0.0045005781894322215,12.498744059702643,0.0645980029814428,0,0,0.6860012908913996,0,0,0,0,0.45449746060731017,-0.11305462574882053,-0.39388530318478565,0.05859375,0.06532021373143157,0,0,1,1,0,0,0,0,,
53.131502263500025,1000,,,,-0.0625,-0.0384765625,-0.9478515625,0.00013971421980074665,0.006970020631061027,12.499526361640246,0.06270371737912642,0,0,0.6758522149982695,0,0,0,0,0.4543405639975531,-0.11332677909309866,-0.3941184760300565,0.05859375,0.0650822853751747,0.2,0,1,1,0,0,0,0,,
53.38323076350002,1000,,,,-0.0625,-0.0396484375,-0.948046875,0.00010461503265821856,0.013100975437897433,12.499044859790082,0.06105660567790637,0,0,0.6417469238144575,0,0,0,0,0.4542226406032162,-0.11300437651520948,-0.3946973808680225,0.05859375,0.06471338441163958,0,0,1,1,0,0,0,0,,
53.63253276350004,1000,,,,-0.0625,-0.0392578125,-0.948046875,0.00004811242334698769,0.01389022243956034,12.499008205207062,0.06388690460462824,0,0,0.6700459108479543,0,0,0,0,0.4546897925158865,-0.11305118848910753,-0.39477190415550506,0.05859375,0.06467361078280923,0.1,0,1,1,0,0,0,0,,
53.88136976350002,1000,,,,-0.0625,-0.0392578125,-0.9484375,0.00003834430999157428,0.004621266816959875,12.499784264437615,0.06472118011424514,0,0,0.6855211772162868,0,0,0,0,0.45483028227035566,-0.11311072171603667,-0.3938966990003746,0.05859375,0.06476708737334172,0,0,1,1,0,0,0,0,,
54.13169526350002,1000,,,,-0.0625,-0.0390625,-0.948828125,0.000060523299227923916,0.002974963889207102,12.499803420947284,0.06622408810475026,0,0,0.6890243359989746,0,0,0,0,0.45465661226559007,-0.1131007016477172,-0.39374124968462193,0.05859375,0.06484239998807188,0.1,0,1,1,0,0,0,0,,
54.38134326350003,1000,,,,-0.0625,-0.0390625,-0.9482421875,0.00009679959449145215,0.00948414247940847,12.499558967500862,0.06445858232372606,0,0,0.6624900031151848,0,0,0,0,0.4544499976167532,-0.1131510086347671,-0.39435586765128017,0.05859375,0.06482983378530846,0.1,0,1,1,0,0,0,0,,
54.62974076350004,1000,,,,-0.0625,-0.0392578125,-0.9484375,0.00011295369384598607,0.010888893992720765,12.499531437174523,0.06337047665106318,0,0,0.6494267211546805,0,0,0,0,0.45448147069890305,-0.1132797554785897,-0.3944885088911553,0.05859375,0.06469047380018034,0,0,1,1,0,0,0,0,,
54.87958526350003,1000,,,,-0.0625,-0.0392578125,-0.9478515625,0.00008911910888186636,0.009095635683285447,12.50001842855851,0.0647539179056619,0,0,0.6830344866108998,0,0,0,0,0.4546034797677784,-0.11323486661777182,-0.39431918356683593,0.05859375,0.064686241435604,0,0,1,1,0,0,0,0,,
55.13322476350002,1000,,,,-0.0625,-0.0388671875,-0.9486328125,0.000042799020599059006,0.003269781539495047,12.499432395411088,0.06312716224879399,0,0,0.6730700887664517,0,0,0,0,0.45478848836987007,-0.11310275650309347,-0.3937690873329893,0.05859375,0.06460136995020424,0,0,1,1,0,0,0,0,,
55.381950763500015,1000,,,,-0.0625,-0.0390625,-0.947265625,0.00003443214134124457,0.0032461287927305535,12.499150664177579,0.0598420239848506,0,0,0.627980383306646,0,0,0,0,0.45487739138488514,-0.11312667821472795,-0.39376685396315303,0.05859375,0.06417880495697785,0,0,1,1,0,0,0,0,,
55.630438263500025,1000,,,,-0.0625,-0.0388671875,-0.948828125,0.000011059268211970575,0.010996435448855767,12.49867337569157,0.06291384129544772,0,0,0.6609546848896108,0,0,0,0,0.4548903923539484,-0.11299081337879846,-0.39449866330775096,0.05859375,0.06409707491188046,0.1,0,1,1,0,0,0,0,,
55.88108726350002,1000,,,,-0.0625,-0.0390625,-0.9474609375,0.000019765958666006636,0.006176248714097722,12.49870887020639,0.06314182808347388,0,0,0.6850125995094891,0,0,0,0,0.45495273898753136,-0.11309929050294279,-0.3940435254852475,0.05859375,0.06407174224743278,0.1,0,1,1,0,0,0,0,,
56.13182076350004,1000,,,,-0.0625,-0.0388671875,-0.9478515625,0.00004146031647731302,0.0018906928277541261,12.499454994025442,0.06217037049043238,0,0,0.6672893901493654,0,0,0,0,0.4549254497798093,-0.11321228869198648,-0.39363886925891034,0.05859375,0.06389982537333741,0,0,1,1,0,0,0,0,,
56.380781763500025,1000,,,,-0.0625,-0.0390625,-0.9474609375,0.00006540891362505324,0.010805991406718308,12.499164564085186,0.06497144617890117,0,0,0.7086787488485683,0,0,0,0,0.45460461163778315,-0.1130866573321968,-0.39448068095739475,0.05859375,0.0640081897465693,0,0,1,1,0,0,0,0,,
56.63092726350003,1000,,,,-0.0625,-0.0384765625,-0.9482421875,0.00008357462133821013,0.012286808314728608,12.498860075373223,0.06530248031406538,0,0,0.696383546821221,0,0,0,0,0.45465659003681813,-0.11324572097273791,-0.39462050454102854,0.05859375,0.06414397888087779,0.1,0,1,1,0,0,0,0,,
56.88193126350003,1000,,,,-0.0625,-0.0388671875,-0.9478515625,0.000017969019269330743,0.009735782049349563,12.498926876562994,0.06134411308185842,0,0,0.6425452856333085,0,0,0,0,0.45488521454297315,-0.11302983011100176,-0.3943796282838493,0.05859375,0.06383986186889815,0.1,0,1,1,0,0,0,0,,
57.13225726350004,1000,,,,-0.0625,-0.0392578125,-0.948828125,0.000013787979856492186,0.007590360842148444,12.499523869215276,0.06438246233274428,0,0,0.6750433009220347,0,0,0,0,0.4550127607202799,-0.1131133696999175,-0.3941770505850316,0.05859375,0.06393745568911355,0,0,1,1,0,0,0,0,,
57.38188226350003,1000,,,,-0.0625,-0.0388671875,-0.9484375,4.1983723208288064e-7,0.008654469315382204,12.499730518426453,0.06433653350282695,0,0,0.6838217356951478,0,0,0,0,0.45521021302854126,-0.11319930947894286,-0.3942775271931105,0.05859375,0.0639463712090608,0,0,1,1,0,0,0,0,,
57.6311537635,1000,,,,-0.0625,-0.0384765625,-0.9482421875,-0.00004852853505175453,0.010819810362445588,12.498937982207849,0.0630110528653969,0,0,0.6732468992978342,0,0,0,0,0.4553727539961187,-0.11303131244941902,-0.3944819857884656,0.05859375,0.0638911879403042,0,0,1,1,0,0,0,0,,
57.880720763500015,1000,,,,-0.0625,-0.038671875,-0.9482421875,0.00009795252841440117,0.01394638212143294,12.49870916063107,0.06345784166429594,0,0,0.6732032964100234,0,0,0,0,0.4545136966396795,-0.11321312238856476,-0.39477720693664753,0.05859375,0.06386197698467651,0,0,1,1,0,0,0,0,,
58.13283226350003,1000,,,,-0.0625,-0.0392578125,-0.9478515625,0.00009969512203858338,0.011617845805741963,12.49885132488873,0.06297948450964493,0,0,0.6760204560929788,0,0,0,0,0.45431448026002663,-0.11305251561059762,-0.39455733890939826,0.05859375,0.0637766601853724,0,0,1,1,0,0,0,0,,
58.38184526350002,1000,,,,-0.0625,-0.0390625,-0.9482421875,0.00007440863414812417,0.007056205696254981,12.49936949203889,0.06475609511718583,0,0,0.6856303636382117,0,0,0,0,0.45453230860957416,-0.11308101385379772,-0.3941266139062557,0.05859375,0.06385815070544724,0.1,0,1,1,0,0,0,0,,
58.63153326350003,1000,,,,-0.0625,-0.039453125,-0.9484375,0.00005035114674106761,0.012789229563291827,12.499876518024502,0.0641785414953037,0,0,0.6847455268141586,0,0,0,0,0.454797035753448,-0.11315763559751138,-0.39466794480125783,0.05859375,0.06388550138397521,0.1,0,1,1,0,0,0,0,,
58.88167026350002,1000,,,,-0.0625,-0.0384765625,-0.9484375,0.00005221914833313321,0.01274763202456505,12.499968473998823,0.06516893436727497,0,0,0.7130661875052764,0,0,0,0,0.4548440649988958,-0.11320989202896999,-0.39466401702537707,0.05859375,0.06398826054699047,0.1,0,1,1,0,0,0,0,,
59.13033326350002,1000,,,,-0.0625,-0.0396484375,-0.947265625,-0.0000011904969807500914,0.012525691978465479,12.499847403681647,0.0652957176554749,0,0,0.7007003287446875,0,0,0,0,0.4549455016492819,-0.11296119987920092,-0.39464306071914523,0.05859375,0.06411192967235857,0,0,1,1,0,0,0,0,,
59.37994026350002,1000,,,,-0.0625,-0.0388671875,-0.9474609375,0.000016004352700930275,0.01453776242690158,12.49969992637602,0.06287968647812156,0,0,0.6918357991532287,0,0,0,0,0.454989477781528,-0.11310726310689774,-0.3948330470024611,0.05859375,0.0639812619506558,0,0,1,1,0,0,0,0,,
59.63134076350002,1000,,,,-0.0625,-0.0392578125,-0.94765625,0.00010740930166597191,0.01130343601743135,12.499734202122708,0.06232591373190146,0,0,0.6671895734202252,0,0,0,0,0.4548820014950611,-0.11358981944975151,-0.3945276513071746,0.05859375,0.06383568136188864,0,0,1,1,0,0,0,0,,
59.88188926350002,1000,,,,-0.0625,-0.03828125,-0.94765625,0.00007909427648082485,0.004113206182651344,12.499565921917029,0.0654246248132149,0,0,0.7030860082406201,0,0,0,0,0.454948802045703,-0.11346919250863738,-0.3938487262508685,0.05859375,0.0639901933758412,0,0,1,1,0,0,0,0,,
60.13363426350003,1000,,,,-0.0625,-0.0392578125,-0.9478515625,0.00010138264179731394,0.002770436408474064,12.4991854950865,0.06778407484838264,0,0,0.7329662912289765,0,0,0,0,0.4546156024455875,-0.11332246894273072,-0.39372193752985574,0.05859375,0.06431189112514095,0.1,0,1,1,0,0,0,0,,
60.38102076350002,1000,,,,-0.0625,-0.0392578125,-0.9478515625,0.0000980373733411571,0.00720431494626919,12.498840263262391,0.06514578738522013,0,0,0.709528050798857,0,0,0,0,0.4542424715346959,-0.11298006900623207,-0.3941405988668504,0.05859375,0.06440901943860895,0,0,1,1,0,0,0,0,,
60.63167176350004,1000,,,,-0.0625,-0.0390625,-0.9478515625,0.00004768834658756375,0.01080397703694248,12.499186931122685,0.06346421449412049,0,0,0.6754779920367481,0,0,0,0,0.4545914807309418,-0.11296385113778709,-0.3944804907540014,0.05859375,0.06425655764823747,0,0,1,1,0,0,0,0,,
60.8818752635,1000,,,,-0.0625,-0.0388671875,-0.9478515625,0.000013234778850992275,0.010465194536639917,12.4990448606434,0.06291763995369387,0,0,0.6719609573993244,0,0,0,0,0.4547902521488084,-0.11291825789017244,-0.394448501800466,0.05859375,0.06413558359566429,0.1,0,1,1,0,0,0,0,,
61.1350722635,1000,,,,-0.0625,-0.0388671875,-0.9478515625,0.000020861588909728697,0.006429583261339113,12.49952695712167,0.0612856185393568,0,0,0.6378121911817677,0,0,0,0,0.4550818564956215,-0.11321738407178916,-0.39406744616312606,0.05859375,0.0639367768850934,0,0,1,1,0,0,0,0,,
61.380398763500025,1000,,,,-0.0625,-0.0388671875,-0.9486328125,-0.000006429468721984448,0.004790598713819564,12.4994994311028,0.06267192504110843,0,0,0.6528425772835427,0,0,0,0,0.4551249921905951,-0.11308281902847694,-0.39391268787281003,0.05859375,0.06380782114432179,0,0,1,1,0,0,0,0,,
61.63076376350002,1000,,,,-0.0625,-0.038671875,-0.9482421875,0.00005336162179469022,0.0059220446809703856,12.499747734646746,0.06236802368363187,0,0,0.6614062027236286,0,0,0,0,0.45465971236001324,-0.11305831040763141,-0.3940195227076633,0.05859375,0.06373105399250226,0,0,1,1,0,0,0,0,,
61.88193376350002,1030,,,,-0.0625,-0.0369140625,-0.9501953125,0.000103904857076904,0.008380394647157086,12.499573225832453,0.06204829236225329,0,0,0.6544247091565062,0,0,0,0,0.45440213007748803,-0.11315448984262252,-0.3942516481650638,0.05859375,0.0636169240331713,0.1,0,1,1,0,0,0,0,,
62.13148576350003,1300,,,,-0.0646484375,-0.0212890625,-0.9533203125,0.0005815376714115455,0.010846381903018757,12.49650404715718,0.1310085967732489,0,0,1.5316666755891284,0.00004339722252002446,0.0013715974550372956,0,0.0007362717803712953,0.4540989114142275,-0.11589860515389352,-0.3944844947603753,0.0607421875,0.06801276194286834,0.1,0,1,1,0,0,0,0,,
62.38195126350003,1300,,,,-0.0744140625,0.0109375,-0.9615234375,0.008584524812914569,0.022083342790289437,12.46620732731023,0.7898676716508753,1241,0,9.728245078651774,1.4469690915353808,11.692065304751155,0.03186956925919208,0.0022223496636743015,0.4338761933617324,-0.14883683061171168,-0.39554552541981225,0.0798828125,0.12306144403002506,0.1,0,1,1,0,0,0,0,,
62.63263276350002,1300,,,,-0.0515625,-0.040234375,-0.9708984375,0.0302164297003213,0.3028579989000122,12.431899979140864,1.722304303062107,3100,0,21.29333871135575,9.858257993310787,46.07628164371653,0.02887404918560067,0.01376692515345159,0.37646392741149637,-0.235499182551884,-0.4220571882718859,0.1447265625,0.2607227451514414,0,0,1,1,0,0,0,0,,
62.88157176350002,1300,,,,-0.0755859375,-0.0037109375,-0.9490234375,0.03426250023682724,1.0795666066373348,12.427532565684356,1.8775022566819906,3428,0,23.186386582621374,12.298140334818289,53.03806885562294,0.08765059555048521,0.04650358393474043,0.3446903860958038,-0.23359264920704642,-0.49539655952407047,0.211328125,0.38583151190749987,0.2,0,1,1,0,0,0,0,,
63.13022276350002,1300,,,,-0.066796875,-0.0166015625,-0.9578125,0.03325471162261534,1.5307864897678607,12.427390189765829,1.8851729038039466,3468,0,23.31787751238803,12.077910692649052,51.79699442598,0.12682558390976237,0.06564881054158232,0.34281082013219344,-0.2256329241156212,-0.5380022190926954,0.2697265625,0.49885397639498413,0,0,1,1,0,0,0,0,,
63.381377763500026,1300,,,,-0.058984375,-0.0228515625,-0.953515625,0.032478790384278006,1.652502972504735,12.427136106745625,1.8899765732485931,3476,0,23.35550900358899,11.822278036617794,50.61897549807452,0.13977702651231574,0.07075337865389368,0.3443284604496689,-0.22205788034425483,-0.5494950881378247,0.310546875,0.6043468641452037,0,0,1,1,0,0,0,0,,
63.63193476350002,1300,,,,-0.065625,-0.01171875,-0.9650390625,0.032496364738665996,1.6812399407344594,12.427435735320163,1.8893042900953678,3482,0,23.34597526818665,11.849543678564103,50.75623604118916,0.14188407985654905,0.07201412329757727,0.3438140325832526,-0.22172541707517532,-0.5522085268208355,0.3341796875,0.7016237402229881,0.2,0,1,1,0,0,0,0,,
63.881592263500046,1300,,,,-0.0740234375,0.0171875,-0.9515625,0.03222350337875373,1.6890445455096457,12.427288834746244,1.8894748094148148,3442,0,23.349976330622205,11.615340928151126,49.743822561618494,0.14552214291477011,0.07233603709144201,0.34580823246906617,-0.22172604369269094,-0.5529454631717169,0.3498046875,0.7913317142276286,0,0,1,1,0,0,0,0,,
64.13185026350001,1300,,,,-0.0740234375,-0.0177734375,-0.9564453125,0.03217207909633857,1.6926285370621486,12.427293876019752,1.8873729065571982,3482,0,23.324802766090325,11.731077069518335,50.29457154955683,0.1442861260030961,0.07256790906730921,0.34637027613297466,-0.22188653203301012,-0.5532838753953169,0.362890625,0.874183135419953,0,0,1,1,0,0,0,0,,
64.38144826350002,1300,,,,-0.062109375,-0.0203125,-0.960546875,0.03220893861720357,1.689216198573675,12.426865056876952,1.8941011285580927,3490,0,23.415682833076886,11.771237966326696,50.27084017928668,0.143504266538383,0.07214044869066737,0.3464013179327019,-0.2221451855517181,-0.5529616712163608,0.3720703125,0.9511956653645246,0,0,1,1,0,0,0,0,,
64.63246526350001,1300,,,,-0.07578125,-0.00546875,-0.947265625,0.0320381457617124,1.682026008518792,12.426460603603715,1.8921141953354546,3496,0,23.389661957799927,11.730674055365245,50.15323735785394,0.14338754315091473,0.0719132767974431,0.3471095880668269,-0.22168054379642102,-0.5522827499162029,0.3849609375,1.0225327876245436,0,0,1,1,0,0,0,0,,
64.88143126350002,1300,,,,-0.0671875,-0.0236328125,-0.955859375,0.03194689129511659,1.6742342414626787,12.426226395244267,1.8835162664996736,3497,0,23.318829483215087,11.700091218477807,50.17451422256327,0.1430961647230028,0.07179745369097074,0.34787216720447633,-0.22176312858135017,-0.5515470257448128,0.3939453125,1.0872118221496816,0.2,0,1,1,0,0,0,0,,
65.13171126350002,1300,,,,-0.0681640625,-0.004296875,-0.954296875,0.03200258163601478,1.6689993869693776,12.426074875856063,1.882835559496972,3496,0,23.291759015712138,11.715141106343488,50.29738925748319,0.1424661178688094,0.07165622637986525,0.3476103471011579,-0.2218880437656483,-0.5510527336340899,0.39765625,1.1472405809900965,0,0,1,1,0,0,0,0,,
65.38205626350003,1300,,,,-0.0775390625,-0.0203125,-0.9619140625,0.03201471023192337,1.6702603792920505,12.425503810146058,1.9074879995602991,3513,0,23.576522554754092,11.777238470488134,49.95486308423429,0.14182569731241512,0.0708470060052015,0.34856486607265696,-0.2227864171261718,-0.5511718006602273,0.4119140625,1.2051351464453939,0.2,0,1,1,0,0,0,0,,
65.63275876350005,1300,,,,-0.0646484375,0.0001953125,-0.96328125,0.032083041360171746,1.6847975052582838,12.42630954152709,1.8993584653998365,3508,0,23.47695293214074,11.78473905236604,50.197586316496015,0.1429645961674032,0.07176584420921009,0.347214632187644,-0.2220534931851863,-0.5525444437178126,0.428125,1.2576469823578724,0,0,1,1,0,0,0,0,,
65.8813712635,1300,,,,-0.0740234375,-0.0044921875,-0.95703125,0.0320914526761724,1.7070830299318334,12.426512223365929,1.8868858113772589,3497,0,23.324164000986467,11.753590978347468,50.39237312821057,0.14524007931832186,0.07318963884161779,0.34700890269510876,-0.2219292365894653,-0.5546487159652187,0.4275390625,1.3047299361398443,0.2,0,1,1,0,0,0,0,,
66.13242926350003,1300,,,,-0.065234375,-0.009765625,-0.9453125,0.03201839125453927,1.7087037427082519,12.42643093480584,1.888579372480263,3493,0,23.341940224089825,11.711249181166725,50.172581646295825,0.1459028622461345,0.07320318765576216,0.34746343349491976,-0.22186099115688798,-0.5548017489750487,0.4181640625,1.3489391120391132,0,0,1,1,0,0,0,0,,
66.38183076350002,1300,,,,-0.0736328125,-0.0248046875,-0.964453125,0.0320623370108806,1.7063331148846734,12.426684756394408,1.8895168763528918,3491,0,23.365130865156107,11.721233354847438,50.16551439587168,0.14557633225952543,0.0730290661330085,0.3472532624910753,-0.2219564914034613,-0.5545779065297323,0.4115234375,1.3898151126929175,0,0,1,1,0,0,0,0,,
66.63159576350003,1300,,,,-0.065234375,-0.005078125,-0.959375,0.03209334304602913,1.7039945188169072,12.426538011903286,1.8857620695131474,3488,0,23.325106165044456,11.722401122338383,50.25661000360515,0.1453624116990946,0.07305411285658292,0.3470854380641689,-0.22200704532347076,-0.5543570886277365,0.4095703125,1.4270972901573171,0,0,1,1,0,0,0,0,,
66.88227576350002,1300,,,,-0.06171875,-0.0041015625,-0.9625,0.03217857713852672,1.7019653078146166,12.426572043673797,1.8876501853946377,3486,0,23.34677875458262,11.745325833880745,50.308152808558454,0.14490585600955047,0.07289944073324657,0.3466762207335191,-0.22219090628739196,-0.5541654838771729,0.403125,1.4620059202189346,0.1,0,1,1,0,0,0,0,,
67.13164076350003,1300,,,,-0.074609375,-0.0302734375,-0.9642578125,0.03207130431643881,1.701411808795673,12.426522949907884,1.8892666856526616,3486,0,23.357524524047058,11.706517236912228,50.11885215752229,0.14533885760646098,0.07284218089044425,0.3478701037222961,-0.22254415575189954,-0.5541132206865329,0.39609375,1.4942915325311577,0.1,0,1,1,0,0,0,0,,
67.39753926350004,1300,,,,-0.0603515625,-0.0279296875,-0.95703125,0.032242833652549846,1.7037364816810874,12.42553933532329,1.8994273607098102,3491,0,23.465147749931734,11.788292082000996,50.23762617834539,0.14452950836695952,0.0726075862442271,0.347025849239394,-0.22289631761426057,-0.5543327239160386,0.39609375,1.5266453190717875,0.1,0,1,1,0,0,0,0,,
67.65682876350003,1300,,,,-0.074609375,0.0076171875,-0.960546875,0.03230452348429132,1.701405285055847,12.426218136076333,1.9011501717441028,3495,0,23.496546071667833,11.822954229995768,50.31801525228888,0.14390718321683146,0.07241090446678103,0.34651938033989077,-0.22284828257011932,-0.5541126046936464,0.4021484375,1.5561830630653797,0,0,1,1,0,0,0,0,,
67.90794976350001,1300,,,,-0.075390625,-0.0078125,-0.958984375,0.03223871020620661,1.692449770284387,12.426307128249785,1.8938073498359447,3493,0,23.413092404614538,11.793020840311774,50.36954380980568,0.14351409256679362,0.07228652704975182,0.3464203701812501,-0.22234891617900826,-0.553266995650518,0.40390625,1.581670946276601,0.1,0,1,1,0,0,0,0,,
68.15734226350004,1300,,,,-0.07421875,-0.019921875,-0.959765625,0.032293026182834236,1.6864362934758663,12.426295993983619,1.8904239915009557,3491,0,23.370434559646743,11.805194999054006,50.513448259100606,0.14285591272146578,0.07216116548967534,0.3463473835732541,-0.22262781298064835,-0.5526991834700125,0.4041015625,1.6048933857701073,0.1,0,1,1,0,0,0,0,,
68.40671126350001,1300,,,,-0.077734375,0.0068359375,-0.9634765625,0.0321485363222399,1.6867965805590555,12.425848412245253,1.8928345460010967,3489,0,23.39577836461788,11.746138987194975,50.20628063572785,0.1436048218218606,0.07209836679226685,0.347124658618758,-0.2223880982631074,-0.5527332029567137,0.402734375,1.6265410327077245,0,0,1,1,0,0,0,0,,
68.65593826350005,1300,,,,-0.0677734375,-0.0134765625,-0.95390625,0.032104955299940015,1.7027237226011764,12.425779438986314,1.9004428818643813,3496,0,23.481841346512567,11.752587917337488,50.049840731620236,0.14488103310953362,0.07251260337882193,0.34715569055349954,-0.2221406129571692,-0.5542370958858988,0.40703125,1.6473202688363888,0.1,0,1,1,0,0,0,0,,
68.90920026350003,1300,,,,-0.06640625,-0.03046875,-0.964453125,0.03216830574842205,1.7104336013092263,12.425823657165024,1.899706407631654,3494,0,23.468866747802394,11.771505831933311,50.15860264124313,0.14530396766907216,0.07288178860543289,0.3468947209773333,-0.22231445788856305,-0.5549650878911967,0.41015625,1.6666352406317746,0,0,1,1,0,0,0,0,,
69.15696126350004,1300,,,,-0.0654296875,-0.0228515625,-0.96328125,0.032311707887211064,1.708458445561485,12.425809806442615,1.8968557544477505,3487,0,23.43853238042688,11.798101936123597,50.336602491361624,0.14480794518353016,0.07289139054550749,0.3461149985234738,-0.22254522089997164,-0.5547785872148537,0.4037109375,1.683770602292841,0.1,0,1,1,0,0,0,0,,
69.40714226350003,1300,,,,-0.0744140625,0.0171875,-0.9533203125,0.03226636138884771,1.7046780089884237,12.42572245732627,1.89684364772944,3491,0,23.43612016113135,11.795422569463522,50.33013794189044,0.14452055795435473,0.07273734636201346,0.34629877515661917,-0.22241817558533508,-0.5544216260088556,0.3986328125,1.6999308349249156,0,0,1,1,0,0,0,0,,
69.65755926350003,1300,,,,-0.0638671875,-0.0328125,-0.9494140625,0.032199551296386596,1.7031026880137543,12.426150538749756,1.8885817036867174,3487,0,23.33200138043955,11.756981934667715,50.390083261373206,0.1448592978852685,0.0729946591642161,0.34599525561501354,-0.22173640762076374,-0.5542728790416509,0.3978515625,1.714151433188304,0.1,0,1,1,0,0,0,0,,
69.90837076350003,1300,,,,-0.058203125,-0.0044921875,-0.962890625,0.032025028887660116,1.7000488188822604,12.426394630947955,1.8865212275264178,3485,0,23.29643180204953,11.68607477780989,50.1626085302526,0.14547809787374563,0.0729748622931236,0.3470681118635733,-0.22156229212594697,-0.5539845227137319,0.3958984375,1.7271153719400154,0,0,1,1,0,0,0,0,,
70.15694176350003,1300,,,,-0.0658203125,-0.005859375,-0.9564453125,0.0319067920532022,1.6940252174110073,12.426025589173939,1.8921059709514598,3488,0,23.366902979410018,11.655238806332207,49.87922638216167,0.14534641560889253,0.07249679044800361,0.347553571790776,-0.22123644097256237,-0.553415754529403,0.39453125,1.7395790026881535,0.1,0,1,1,0,0,0,0,,
70.40663926350003,1300,,,,-0.062109375,-0.0248046875,-0.963671875,0.032109617823222567,1.694328119601095,12.425456192822155,1.892693380611231,3491,0,23.392361589723894,11.739177485260246,50.18414447314061,0.14433236013663045,0.07243181640262317,0.34614926224224546,-0.22130318310509406,-0.5534443555465034,0.39453125,1.7512872280231613,0.1,0,1,1,0,0,0,0,,
70.65863876350002,1300,,,,-0.0705078125,-0.012109375,-0.9654296875,0.03211383161366738,1.690494601768037,12.424471519972018,1.886473748452445,3450,0,23.308842372253924,11.600715273358066,49.76937746322274,0.14584186853006478,0.07252591351287434,0.34553192670415167,-0.22079802824365463,-0.5530823822340412,0.3947265625,1.761327369290306,0,0,1,1,0,0,0,0,,
70.90937376350004,1300,,,,-0.0759765625,-0.0134765625,-0.962109375,0.032109100162455724,1.6891287977813338,12.424713101209363,1.894498514917564,3493,0,23.40265615255486,11.74366111306083,50.18107613512207,0.14383348980664315,0.0721772080431429,0.34634767130943084,-0.22147080185490847,-0.5529534185472214,0.4001953125,1.771463649884271,0,0,1,1,0,0,0,0,,
71.15634976350002,1300,,,,-0.0662109375,-0.0087890625,-0.9552734375,0.03206226877364592,1.690200848553045,12.425093647236775,1.8945838641464945,3458,0,23.409977217850013,11.60940826256813,49.5916448358992,0.14568860094485436,0.07220007352740498,0.3464492154896278,-0.22126359257466627,-0.5530546450931416,0.4,1.7807549995779812,0,0,1,1,0,0,0,0,,
71.40931226350001,1300,,,,-0.0482421875,-0.00234375,-0.949609375,0.03210368194922637,1.6922518713557553,12.425912035492999,1.9111048575477771,3453,0,23.63435115871136,11.607756216751756,49.11184350540317,0.14590676255072252,0.07160368212308084,0.34583266044971356,-0.22099316770746374,-0.5532483093853565,0.40703125,1.7909752342291632,0,0,1,1,0,0,0,0,,
71.65629176350002,1300,,,,-0.0736328125,-0.0091796875,-0.9640625,0.03184562899926303,1.6863616263449124,12.426251576466964,1.8965979687901977,3491,0,23.45497500351274,11.64192636894782,49.635280804128136,0.1448526684088822,0.07189786357632577,0.34825130705634144,-0.22145251484440326,-0.5526921331548973,0.406640625,1.7987062399407052,0,0,1,1,0,0,0,0,,
71.92732626350002,1300,,,,-0.059765625,-0.016796875,-0.9544921875,0.032011051743742566,1.6966902991499482,12.425707109598767,1.8925850596808391,3489,0,23.382470015971872,11.695862524167909,50.019921451340146,0.14506750531530244,0.07256285528655113,0.3471846234789412,-0.2215746915194799,-0.5536674002780435,0.403515625,1.8062606057565986,0,0,1,1,0,0,0,0,,
72.18299126350003,1300,,,,-0.0708984375,-0.0140625,-0.9662109375,0.031979658561721774,1.7048520579162292,12.42564027555201,1.8928798043761659,3489,0,23.37498456934323,11.685572337610754,49.99173485907386,0.145894032282056,0.0729348739746501,0.3474136927562321,-0.2215744475876736,-0.5544380602788058,0.398046875,1.8129567004754477,0,0,1,1,0,0,0,0,,
72.43315126350005,1300,,,,-0.0701171875,-0.0130859375,-0.944921875,0.03196393842339895,1.6961904436079729,12.42540909842613,1.8902029480495508,3488,0,23.35504620172931,11.67541161023777,49.99113693121746,0.14527925712383022,0.07262651806836941,0.34739471615595435,-0.22145919356456162,-0.5536202022802355,0.398828125,1.8188081061983297,0.1,0,1,1,0,0,0,0,,
72.68114376350002,1300,,,,-0.065234375,-0.01875,-0.955859375,0.03199483335429672,1.6955187474859141,12.425342623294753,1.8833867114574567,3482,0,23.2573719732401,11.66627922223769,50.161762893770366,0.14533514163567207,0.07290261016144993,0.3467193222858922,-0.22107191433525383,-0.5535567785319037,0.3947265625,1.823507674463021,0,0,1,1,0,0,0,0,,
72.93250226350003,1300,,,,-0.064453125,-0.0173828125,-0.958984375,0.03208742502592255,1.6872294255977556,12.42543369463444,1.888287678482731,3485,0,23.341995022513505,11.711816743312589,50.17487622666384,0.1440625693098825,0.0722831054891353,0.3459774600686181,-0.22101558525374929,-0.5527740736032747,0.393359375,1.8284520588274062,0,0,1,1,0,0,0,0,,
73.18137176350002,1300,,,,-0.0712890625,-0.011328125,-0.95,0.03211004822885139,1.6897366587243474,12.425324448786585,1.8903153234613241,3486,0,23.35395061216734,11.720289193533905,50.1854894304081,0.14417248871952218,0.07235339250968681,0.34627197576104085,-0.22141157578528206,-0.5530108147688227,0.3919921875,1.83316008597892,0,0,1,1,0,0,0,0,,
73.43370526350002,1300,,,,-0.06171875,0.0103515625,-0.9544921875,0.032025069739338045,1.696816588883663,12.425093313576685,1.8942041930401268,3487,0,23.410830092198545,11.69358855887132,49.94951485943292,0.1451067494201314,0.07248005563186113,0.3471118246866537,-0.22160019596300834,-0.5536793249684282,0.3912109375,1.8378114707437738,0.1,0,1,1,0,0,0,0,,
73.68198576350002,1300,,,,-0.0703125,-0.0158203125,-0.9662109375,0.03209384371030498,1.7103465318683855,12.425162854013085,1.8912232225932635,3485,0,23.357967571430958,11.712534684167696,50.14393006758259,0.14602748498304513,0.07322414262541689,0.3468770167566647,-0.22183069678931083,-0.5549568665093518,0.3927734375,1.8419192794640982,0,0,1,1,0,0,0,0,,
73.93325676350003,1300,,,,-0.0681640625,-0.027734375,-0.958984375,0.03212275957356264,1.7111159761494943,12.424845072149694,1.8891864301763028,3482,0,23.32136502965208,11.713317183447788,50.22574991970034,0.14608374036224003,0.07337138051386949,0.3462228763176085,-0.2214492693995757,-0.5550295199590856,0.392578125,1.8454112792175295,0,0,1,1,0,0,0,0,,
74.18224876350003,1300,,,,-0.0775390625,-0.0080078125,-0.9619140625,0.03215084368551461,1.7089391633717237,12.424571382102096,1.8875376148552205,3481,0,23.340803004400023,11.71949521130291,50.21041246203764,0.14582095884228105,0.0732169198726344,0.3458706623896667,-0.2213226368469529,-0.5548239781653356,0.39453125,1.848546109181099,0.1,0,1,1,0,0,0,0,,
74.43670226350002,1300,,,,-0.0716796875,-0.0080078125,-0.96015625,0.03203588928315258,1.7069304855131844,12.425332620047085,1.8898047847907002,3483,0,23.36394856014022,11.683710651446528,50.00757360298573,0.1460954156167855,0.07305842075325009,0.3467779593096173,-0.22138073740878186,-0.5546343122214721,0.39296875,1.851780329538866,0,0,1,1,0,0,0,0,,
74.70740676350002,1300,,,,-0.0671875,0.00234375,-0.94921875,0.03215461919562025,1.7165610042037736,12.424713166983736,1.8907692701910523,3481,0,23.367566916151333,11.722582693086242,50.16605496677667,0.14643206796342312,0.07345914184163617,0.3458514088711772,-0.22132981057319592,-0.5555436573459682,0.396484375,1.854883014509868,0,0,1,1,0,0,0,0,,
74.95861176350003,1300,,,,-0.071875,-0.020703125,-0.959765625,0.0322320157593019,1.7113345545789374,12.425268807527136,1.8862800316554527,3483,0,23.320003064531114,11.755480835476844,50.41009636035184,0.1455790294068793,0.0733851502240653,0.3451537399805147,-0.22121593479208895,-0.55505015885046,0.4005859375,1.857346417207518,0,0,1,1,0,0,0,0,,
75.20707776350002,1300,,,,-0.0787109375,-0.0115234375,-0.9458984375,0.0322039654472589,1.7086557748745423,12.42521189219448,1.890495397611895,3484,0,23.369020448757865,11.748560833312743,50.274193200102914,0.1454354549319081,0.07311644745367495,0.3444942796470844,-0.2204714956852943,-0.5547972196950466,0.4013671875,1.8597895531159376,0,0,1,1,0,0,0,0,,
75.45634126350004,1300,,,,-0.0751953125,-0.0046875,-0.9666015625,0.03206483726153661,1.7112900275938856,12.426135081182133,1.8840282548681972,3476,0,23.280095231471186,11.673000468283881,50.141804146568525,0.14660382485261356,0.0735089689140656,0.3449005850254083,-0.2199460262769924,-0.5550459544666604,0.3994140625,1.861524349194498,0,0,1,1,0,0,0,0,,
75.70738826350004,1300,,,,-0.0587890625,-0.0234375,-0.9498046875,0.032091003955488986,1.7082919816478586,12.4259068063439,1.8858358756627187,3441,0,23.291753888749493,11.565207796750673,49.6531619928702,0.14781075912395442,0.07334405015413718,0.3450944226608349,-0.22027760541158728,-0.5547628691467906,0.3919921875,1.8632777706396386,0.1,0,1,1,0,0,0,0,,
75.95743626350001,1300,,,,-0.0548828125,-0.0330078125,-0.9560546875,0.03179172545972142,1.7126275380582827,12.426002478379647,1.916074980705212,3479,0,23.670543168090582,11.581289504194691,48.94472504326723,0.14788145512047748,0.07237602804834828,0.34744527813460435,-0.22041917845412123,-0.5551722465864141,0.3869140625,1.8671464570564211,0.1,0,1,1,0,0,0,0,,
76.20803976350003,1300,,,,-0.057421875,-0.037109375,-0.9556640625,0.031787761309889515,1.7152554375184839,12.425561191391683,1.9131210610841496,3475,0,23.631901383736167,11.566393421101834,48.9457129499789,0.1482998399354111,0.07258379230438913,0.34754676725719846,-0.22048164158814956,-0.5554203814624863,0.3912109375,1.871319233912282,0,0,1,1,0,0,0,0,,
76.45650026350002,1300,,,,-0.0771484375,-0.0236328125,-0.9599609375,0.032158920194537054,1.7132451111129314,12.424597515753014,1.89675345257348,3482,0,23.423022908696254,11.726889690635497,50.066358864999415,0.14609587749502037,0.07314427985925108,0.3455466674139803,-0.22109441985808287,-0.555230559857413,0.3875,1.8730252954859608,0.1,0,1,1,0,0,0,0,,
76.70990576350002,1300,,,,-0.0724609375,0.0056640625,-0.9544921875,0.032100347914211645,1.711535478369356,12.425340480228487,1.8816482373493137,3474,0,23.25064288047067,11.676859433061642,50.22184352328637,0.14657573143459632,0.07361253972388716,0.34534489923446204,-0.2205521153827899,-0.5550691307329807,0.387109375,1.8733816044891227,0,0,1,1,0,0,0,0,,
76.95728676350002,1300,,,,-0.0982421875,-0.02265625,-0.9548828125,0.03204192368554782,1.6992697605741736,12.425829066583223,1.889104466462867,3482,0,23.354477846153046,11.684281205575868,50.030900350551306,0.14543260333872915,0.07276087485253595,0.3465593596026796,-0.22123044110294793,-0.5539109614760751,0.38515625,1.8747687711048304,0.1,0,1,1,0,0,0,0,,
77.20792726350003,1300,,,,-0.069140625,-0.0244140625,-0.956640625,0.03186495095474323,1.7022116891333976,12.426267268383292,1.8738683220862415,3471,0,23.175574866634562,11.58168022320391,49.97382492828497,0.14698093479360475,0.07344900573284714,0.3481310797757234,-0.2214705448582094,-0.5541887480084413,0.3908203125,1.8744780439048,0.1,0,1,1,0,0,0,0,,
77.45930176350001,1300,,,,-0.074609375,-0.004296875,-0.9634765625,0.03168251191100024,1.7015257420413228,12.425790765433849,1.8747779285256612,3470,0,23.18106544587031,11.513095863827342,49.66691845570275,0.14779782676402536,0.07340191720603309,0.34942348747766494,-0.22143570237097343,-0.5541239786368342,0.3880859375,1.8745012223881168,0.1,0,1,1,0,0,0,0,,
77.70810826350002,1300,,,,-0.0703125,-0.0076171875,-0.9587890625,0.03204215550774959,1.6911187673146602,12.426086207469538,1.8757146986962923,3471,0,23.208891389154324,11.648287740860415,50.18895340245443,0.1451825161332703,0.07286534337983969,0.346912921827002,-0.22153639815440168,-0.5531413179897298,0.380859375,1.8745534270556743,0.2,0,1,1,0,0,0,0,,
77.95686476350002,1300,,,,-0.0837890625,-0.0193359375,-0.96640625,0.031901434853006914,1.6945154542829437,12.42692726796783,1.873821826654363,3465,0,23.174090854440422,11.576008740932423,49.95269389868728,0.14638224167621602,0.073121889023225,0.34753791569836523,-0.22118925007535317,-0.5534620443008749,0.369921875,1.8745133032328856,0.1,0,1,1,0,0,0,0,,
78.20762126350003,1300,,,,-0.063671875,-0.0283203125,-0.9666015625,0.03191816973247048,1.6998593546211556,12.42618129004432,1.8716342624809812,3466,0,23.12627963362315,11.583437103360131,50.08820946213025,0.14675426373088266,0.07350389531972247,0.3472188662922575,-0.22101977065781445,-0.5539666328775104,0.3658203125,1.8742504236200788,0.1,0,1,1,0,0,0,0,,
78.45723976350004,1300,,,,-0.0693359375,-0.0197265625,-0.9662109375,0.032225003144859626,1.6922523081516214,12.424971106952453,1.866973169441397,3462,0,23.05749824503534,11.681169932157795,50.66101187378732,0.14487221225666516,0.07339299489204994,0.3449878116626326,-0.2210289090965853,-0.5532483506290532,0.3671875,1.8736315921826308,0.1,0,1,1,0,0,0,0,,
78.70698126350001,1300,,,,-0.07265625,-0.0095703125,-0.9572265625,0.03244753295075915,1.6917071182724448,12.42482242052784,1.8820646218229296,3472,0,23.24775093830272,11.795805561574294,50.73981399137283,0.14341701808446822,0.07276948596270616,0.344438679402369,-0.2219561330621492,-0.5531968720146107,0.3763671875,1.8744935107282656,0,0,1,1,0,0,0,0,,
78.95760076350004,1300,,,,-0.076171875,-0.0244140625,-0.9568359375,0.03224778193351481,1.7029820729366494,12.42517752251084,1.8775782766106193,3468,0,23.19978514332525,11.71016091540453,50.475449285332374,0.14542849853691725,0.07340560210907075,0.34475945934291635,-0.22097556889880207,-0.5542614901709338,0.3787109375,1.874725189377878,0.1,0,1,1,0,0,0,0,,
79.20735926350002,1300,,,,-0.064453125,0.0044921875,-0.951953125,0.03176480403863874,1.7062293008039688,12.425628101765282,1.8726594109231645,3462,0,23.14229075410504,11.51626819823942,49.76319604062404,0.148171854891751,0.07372809665587093,0.3476044678210341,-0.2203868883477194,-0.5545681040641357,0.3740234375,1.874434035023842,0.1,0,1,1,0,0,0,0,,
79.45699326350004,1300,,,,-0.073046875,-0.001953125,-0.951171875,0.031533274284387125,1.6990161124676455,12.426306216475215,1.8676010536963705,3462,0,23.078953846979722,11.432765783384486,49.538013910899444,0.14861250648313729,0.07361784557975133,0.34940464572377405,-0.2204804750495272,-0.5538870111909014,0.37578125,1.8739076311177445,0,0,1,1,0,0,0,0,,
79.70813676350002,1300,,,,-0.0958984375,-0.0119140625,-0.9708984375,0.031655337207155014,1.694233188695349,12.42558222824428,1.8678545042967951,3457,0,23.075532418388487,11.45909989402696,49.65931239591765,0.1478508651473392,0.07342163235221963,0.34810149325602163,-0.22012617844544663,-0.5534353918593877,0.3740234375,1.8733525265794355,0.1,0,1,1,0,0,0,0,,
79.95801776350004,1300,,,,-0.06640625,-0.013671875,-0.9703125,0.031922411615821475,1.6958695822021315,12.426685002618715,1.8676911052216538,3460,0,23.080269665959168,11.565481441570157,50.11061047321182,0.14663452435090593,0.07347818948361376,0.3466389838466565,-0.220547048287078,-0.553589905495149,0.3701171875,1.872937096472646,0,0,1,1,0,0,0,0,,
80.2073072635,1300,,,,-0.071875,-0.0130859375,-0.9619140625,0.03220508774723706,1.697156780354571,12.42526137859429,1.889631998194401,3469,0,23.33994859495337,11.698171606741402,50.12071163365182,0.14508126258498516,0.07271502148022248,0.3448892171102142,-0.22081868920670625,-0.5537114469615838,0.366796875,1.874412092567684,0.1,0,1,1,0,0,0,0,,
80.45740626350002,1300,,,,-0.0548828125,-0.0134765625,-0.95,0.03232764548349456,1.7001804354874657,12.425743751338285,1.886443700843318,3465,0,23.300303706205206,11.730766270902661,50.34599540589581,0.1449369528543087,0.07296953174318377,0.3444053295839546,-0.22117308158896126,-0.5539969503847735,0.364453125,1.875507632634956,0.1,0,1,1,0,0,0,0,,
80.70880376350001,1300,,,,-0.0951171875,-0.0013671875,-0.9654296875,0.03215380433973054,1.698496071973955,12.425636288696573,1.913345815767196,3437,0,23.626602755713215,11.571809669663217,48.97903939444784,0.1468607854296497,0.07188979081275676,0.3454646087430294,-0.22099155960183214,-0.5538379072638263,0.366015625,1.8786051311089942,0.1,0,1,1,0,0,0,0,,
80.95791676350002,1300,,,,-0.088671875,-0.0236328125,-0.973046875,0.032087809065649,1.7030349257714121,12.42595551312444,1.875766358945544,3455,0,23.174802671528948,11.608501921971492,50.0916602575966,0.14671350268808245,0.07349155709322731,0.34611795373378695,-0.22113899899786707,-0.5542664807087387,0.36328125,1.8781118521344742,0.1,0,1,1,0,0,0,0,,
81.20829576350002,1300,,,,-0.0625,0,-0.9515625,0.031623001054971824,1.7009714729083674,12.426569442922125,1.8600153717060626,3449,0,22.96640046218846,11.420382138387579,49.72667989734178,0.1489430087968412,0.0740636672977046,0.3480172558908125,-0.21985017225194675,-0.5540716427295059,0.3603515625,1.8763452962309835,0,0,1,1,0,0,0,0,,
81.45736026350002,1300,,,,-0.06328125,-0.02421875,-0.960546875,0.03135322500039514,1.6856240486525298,12.426818757043433,1.842928069754374,3435,0,22.754926475987343,11.278817766770263,49.56652690662777,0.1494525464197318,0.07407735939681219,0.3491726861826674,-0.21914783792710407,-0.5526224886528665,0.3541015625,1.8735852471120897,0.1,0,1,1,0,0,0,0,,
81.70751976350003,1300,,,,-0.0689453125,-0.037890625,-0.96796875,0.03146629474354362,1.6790383045413144,12.427035165900861,1.8585436317098254,3444,0,22.956624034431485,11.347972273503661,49.432243908025555,0.14796566518067064,0.07314047606658,0.34895587100247716,-0.21967254278574933,-0.552000641118884,0.3509765625,1.8725530822264023,0.1,0,1,1,0,0,0,0,,
81.95796976350002,1300,,,,-0.0740234375,-0.006640625,-0.938671875,0.0317482779576467,1.6724373211798478,12.426213864265492,1.8655325240358003,3449,0,23.031702650960437,11.466363146832608,49.78526212315614,0.1458583269459751,0.07261512246816197,0.3475147489983114,-0.2202056380175673,-0.551377354644969,0.3513671875,1.8721197755597838,0.1,0,1,1,0,0,0,0,,
82.20972226350003,1300,,,,-0.0666015625,-0.0240234375,-0.9609375,0.03217698555057496,1.674773789631033,12.426176478268852,1.8652140054529873,3449,0,23.03326267738721,11.620885065112281,50.45364971896062,0.14412277990899547,0.07271220353058855,0.34472586374111175,-0.22050118589462317,-0.5515979716504373,0.3576171875,1.8717733154857261,0.1,0,1,1,0,0,0,0,,
82.45636876350002,1300,,,,-0.0560546875,-0.029296875,-0.9533203125,0.03207252651313208,1.6781914318267734,12.426211722268771,1.867554587473256,3447,0,23.062980326936856,11.576704545655453,50.19616461935074,0.14496378144162056,0.07276605181235521,0.3455936422092751,-0.22059128860753213,-0.5519206766228087,0.359375,1.871425055760837,0,0,1,1,0,0,0,0,,
82.70800176350002,1300,,,,-0.078125,0.00078125,-0.9556640625,0.031834461763593794,1.6815148554859913,12.426461441305957,1.861303910761262,3441,0,22.987569313919966,11.47120383916084,49.901915338602755,0.14658682517246377,0.07314940778038588,0.34688389409124876,-0.22020459360734373,-0.5522344851723002,0.3587890625,1.8705621409892808,0,0,1,1,0,0,0,0,,
82.95847876350001,1300,,,,-0.0712890625,-0.0060546875,-0.9611328125,0.03196315459590231,1.6811742089030788,12.426412393806938,1.8598342872119513,3436,0,22.95864052304452,11.501328650144309,50.096309754106386,0.14617275798088367,0.07322689922186983,0.3459709148075264,-0.22022804115604072,-0.5522023202059781,0.35546875,1.869686353694441,0,0,1,1,0,0,0,0,,
83.20682126350003,1300,,,,-0.0568359375,-0.0021484375,-0.946875,0.03187926238960875,1.6739678249575758,12.425947693089148,1.8601081669126007,3435,0,22.96911481758274,11.467251627360097,49.92485340792552,0.14597842326975938,0.07287932600892771,0.34645798607303885,-0.2201196734662417,-0.5515218698256166,0.3505859375,1.8690315697265334,0.1,0,1,1,0,0,0,0,,
83.45854876350003,1300,,,,-0.069140625,-0.01875,-0.962109375,0.03183265563155486,1.6759256748247804,12.425979746178289,1.859267235534571,3434,0,22.950595823447895,11.448393785476108,49.88300550192562,0.1463910367344307,0.07302356653574875,0.3469547410574775,-0.22025424499976762,-0.5517067364240249,0.3482421875,1.8682610728349371,0,0,1,1,0,0,0,0,,
83.7072997635,1300,,,,-0.08515625,0.01171875,-0.961328125,0.03177966787039878,1.6809113213637583,12.426007119529865,1.8671996392698726,3441,0,23.055232100959813,11.4525717194096,49.67547340723294,0.14677191152480887,0.07290932780509966,0.3477772109561892,-0.22062918287522892,-0.5521774975032918,0.3501953125,1.8683762383634472,0.1,0,1,1,0,0,0,0,,
83.95702926350005,1300,,,,-0.0646484375,-0.003125,-0.9625,0.031614482944067386,1.6814177948365956,12.425695619235444,1.8570774723568366,3436,0,22.949928582000574,11.375110144846612,49.56492892112031,0.14781641874297843,0.0732647397764224,0.34854536721581353,-0.2202514018348245,-0.552225320387812,0.3560546875,1.867290131077597,0,0,1,1,0,0,0,0,,
84.20947526350002,1300,,,,-0.07734375,-0.016796875,-0.9607421875,0.03173514848362171,1.6770529323366812,12.425264904227953,1.8586493262246382,3434,0,22.96665783134572,11.411765029962675,49.6884886762124,0.14695957199705986,0.0730215085830013,0.3474765988582741,-0.22009017157407523,-0.5518131757712119,0.35390625,1.8666526803643309,0,0,1,1,0,0,0,0,,
84.45722976350002,1300,,,,-0.0779296875,0.006640625,-0.9671875,0.03193708009805481,1.6746983334111798,12.425664633196153,1.8570305480085445,3433,0,22.95582462752907,11.481654204299371,50.01727954631313,0.14586456695932876,0.07295396949010914,0.3463549995513505,-0.22039476626743987,-0.5515908468269631,0.3494140625,1.8660447898644783,0,0,1,1,0,0,0,0,,
84.70745926350003,1300,,,,-0.06484375,0.0224609375,-0.9447265625,0.031731651254398786,1.6718976154847185,12.425852347866982,1.8479954477748426,3423,0,22.82858500486089,11.373378922894558,49.82199523531072,0.14700149486705305,0.07323945167813134,0.34714843643696697,-0.2197855437202886,-0.5513263938651505,0.3455078125,1.8642409500422061,0.2,0,1,1,0,0,0,0,,
84.95726426350001,1300,,,,-0.0669921875,-0.016015625,-0.9521484375,0.031834008398811994,1.6728143359996106,12.42544459767038,1.8651205043793033,3391,0,23.03194465179723,11.303475728413371,49.076063414117314,0.14814479693133198,0.07263241394001935,0.3469698993262394,-0.22027581134232327,-0.5514129536193575,0.346875,1.8648507269321382,0.2,0,1,1,0,0,0,0,,
85.20826576350005,1300,,,,-0.07578125,-0.020703125,-0.9599609375,0.031786449187150664,1.6720891299203537,12.425766825596359,1.851982927584236,3390,0,22.85288997737574,11.285163375070393,49.38274611894041,0.14826380852226276,0.07316770828829607,0.3466158315059539,-0.21967163584503405,-0.5513444772855675,0.342578125,1.8635532423239343,0,0,1,1,0,0,0,0,,
85.45688926350002,1300,,,,-0.0775390625,0.0033203125,-0.954296875,0.03177184528784227,1.6725581566541705,12.426627095675315,1.875410436076881,3442,0,23.16714657449609,11.45181069732656,49.44050992862084,0.14606140844951718,0.07221676939738035,0.3469983996069803,-0.21990922756027853,-0.5513887643263133,0.3591796875,1.8642605204011606,0,0,1,1,0,0,0,0,,
85.70824176350003,1300,,,,-0.0671875,-0.0173828125,-0.95859375,0.032334536152308656,1.6900304284308811,12.426069386784942,1.8801649640929572,3467,0,23.23811435844816,11.740033704505766,50.52185934173844,0.14395725180547958,0.07272922945016849,0.34500891352257596,-0.2217362622000457,-0.553038553466908,0.3943359375,1.8661316145094697,0,0,1,1,0,0,0,0,,
85.95869326350004,1300,,,,-0.0904296875,0.1517578125,-0.9267578125,0.03266341079614018,1.7124412579979904,12.426310245244029,1.8637550025672887,3473,0,23.026228736656538,11.878993047461288,51.589357716478176,0.14415794537734541,0.07436986586903882,0.34359188511362404,-0.2225851475225858,-0.5551546574128647,0.4275390625,1.8657421465732362,0.1,0,1,1,0,0,0,0,,
86.20892326350003,1300,,,,-0.0822265625,0.0029296875,-0.9560546875,0.032254576729062144,1.7130822924408626,12.426382323408443,1.8495433722737418,3451,0,22.846663930688727,11.655625230595316,51.01623992292109,0.14698648534144668,0.07498225341172499,0.34574997530398727,-0.22187138378250432,-0.5552151859849997,0.4287109375,1.8643510007999935,0.2,0,1,1,0,0,0,0,,
86.45664276350001,1300,,,,-0.061328125,-0.0091796875,-0.9455078125,0.03199964880517764,1.7006596551727329,12.425848955507622,1.854618452903764,3451,0,22.93112389385942,11.56506024636535,50.43421408960041,0.14705193360136537,0.074164370482427,0.34670038754772287,-0.22108590589177873,-0.5540421998773875,0.41171875,1.8636532627847537,0,0,1,1,0,0,0,0,,
86.70782476350003,1300,,,,-0.071484375,-0.0041015625,-0.959375,0.03181362540728046,1.6942177915333276,12.426161112398635,1.8466484697035384,3444,0,22.825372384525387,11.47444211063839,50.27153888022248,0.14765275531365737,0.07422621120865708,0.3476723263487137,-0.22075251325371284,-0.5534339380089082,0.39921875,1.8621735089897893,0,0,1,1,0,0,0,0,,
86.95835476350004,1300,,,,-0.0611328125,-0.0228515625,-0.951953125,0.032004755194465793,1.6977674364519868,12.42492011176437,1.866130830898571,3455,0,23.04997058750358,11.580565320239934,50.24055956476613,0.14661582785019991,0.0736570459648243,0.3469274004748529,-0.22131354556007485,-0.5537691071108207,0.3875,1.8626122426603555,0,0,1,1,0,0,0,0,,
87.20674026350004,1300,,,,-0.0689453125,0.0015625,-0.960546875,0.03229793225160125,1.700529144230633,12.425971319862525,1.8478227501254003,3442,0,22.82960943503486,11.641754942915243,50.9944702344229,0.14607547887774344,0.07448930500278575,0.3450894938454086,-0.2215753493704334,-0.5540298766066787,0.3806640625,1.8615494675741135,0.1,0,1,1,0,0,0,0,,
87.45770026350002,1300,,,,-0.060546875,-0.0146484375,-0.944140625,0.03243436412165176,1.693108035260708,12.425057700222585,1.8593629453623255,3445,0,22.932773425523866,11.699504968525854,51.01679331237815,0.14472839626320586,0.07383053289414936,0.34266467081233987,-0.22034544544649054,-0.5533291511860685,0.37578125,1.8613506942158644,0,0,1,1,0,0,0,0,,
87.70930676350004,1300,,,,-0.0763671875,-0.00390625,-0.9572265625,0.03281083209827092,1.690106199294462,12.426395494612644,1.8481765984412832,3440,0,22.820046324127873,11.82113926147125,51.80197337226981,0.14297358890799572,0.07406293846293947,0.34040227482067553,-0.22076573108075373,-0.5530457080000737,0.372265625,1.8602771451131006,0,0,1,1,0,0,0,0,,
87.95681476350003,1300,,,,-0.0767578125,-0.0095703125,-0.96328125,0.03232257842566854,1.6895948064284503,12.426841144065236,1.8403958111394114,3437,0,22.71784695274775,11.63347067511928,51.208113012588306,0.14524232875729795,0.0743736789492384,0.34402247200704705,-0.22081147128976086,-0.5529974206103339,0.3685546875,1.8587576580898133,0,0,1,1,0,0,0,0,,
88.20665726350003,1300,,,,-0.06484375,-0.0232421875,-0.9453125,0.03196969752994593,1.69397244751388,12.42626408521722,1.838112822330133,3433,0,22.679133135710963,11.4931938434875,50.677479357636926,0.1473918912851675,0.07469361703280884,0.3461235879861038,-0.22040069590665548,-0.5534107718228413,0.363671875,1.8570566051112387,0.1,0,1,1,0,0,0,0,,
88.46027076350002,1300,,,,-0.0658203125,-0.01328125,-0.9607421875,0.032060136076869805,1.6961559562811621,12.426063359198555,1.846678039319317,3436,0,22.81263935218867,11.536894461250506,50.57325673533517,0.14702367169447222,0.07435391666826546,0.34590145801953875,-0.22077842846605633,-0.5536169458738571,0.359375,1.8564132215229787,0.1,0,1,1,0,0,0,0,,
88.71006126350001,1300,,,,-0.0662109375,-0.021484375,-0.960546875,0.03199880960696164,1.692347335183318,12.42605306195065,1.854842964567554,3444,0,22.92943113774124,11.540124522041975,50.329208220908264,0.14665055276182073,0.0738076523072515,0.34722743568998005,-0.2215345353985335,-0.5532573233926958,0.3609375,1.856439749907042,0,0,1,1,0,0,0,0,,
88.95861126350003,1300,,,,-0.071484375,-0.0236328125,-0.9599609375,0.03229240207464947,1.6982516155158407,12.42551427272128,1.8650778775336705,3448,0,23.049932740302147,11.660913595079311,50.59101448710066,0.14564600734030733,0.07367884612429973,0.3452484295237233,-0.2216774337954382,-0.5538148248842079,0.362890625,1.8572717805763825,0.1,0,1,1,0,0,0,0,,
89.2075472635,1300,,,,-0.066796875,-0.012890625,-0.9509765625,0.03237449163234291,1.6990346796117717,12.426123524922694,1.853341236410549,3440,0,22.90721738211038,11.66286081140622,50.91421934194662,0.14567977982057992,0.07417102374632961,0.34387899220930235,-0.22101453905268986,-0.5538887643614763,0.3646484375,1.8566648930139884,0,0,1,1,0,0,0,0,,
89.45781026350002,1300,,,,-0.0763671875,-0.0091796875,-0.9611328125,0.03226683979695932,1.6990836888881968,12.426142625599905,1.8505044932668688,3439,0,22.861377384206342,11.620678064638616,50.83178663928725,0.14621307831687358,0.0743222855310424,0.34520500049769615,-0.22147919405826122,-0.5538933919779113,0.3640625,1.8562824095815416,0,0,1,1,0,0,0,0,,
89.70874826350001,1300,,,,-0.06796875,-0.0171875,-0.9521484375,0.03213138403535292,1.7035935857334485,12.426324142665177,1.8544896448483137,3443,0,22.90243272555875,11.584732047782577,50.58345051713083,0.1470548351073202,0.07438507941426017,0.3455492757543437,-0.22092340926281956,-0.554319231212533,0.3654296875,1.8562771451448952,0,0,1,1,0,0,0,0,,
89.95842176350001,1300,,,,-0.058984375,-0.0009765625,-0.951171875,0.03211112729230906,1.6910815333121392,12.425801536493854,1.8455623049944303,3436,0,22.79223981179382,11.55312507041208,50.68913845712614,0.14637524688743506,0.0741963490372497,0.34532895057919116,-0.22060620355751687,-0.5531378022332324,0.3630859375,1.8552084980306305,0,0,1,1,0,0,0,0,,
90.20846676350001,1300,,,,-0.0271484375,-0.0134765625,-0.9515625,0.03221390943058059,1.6865818030033688,12.427389683848288,1.9294871495908208,3443,0,23.854277801010404,11.613172463982242,48.70583836719432,0.1452314131006648,0.07073783241944417,0.3446114399776711,-0.22063496503791602,-0.552712922956291,0.373046875,1.861497555471433,0.1,0,1,1,0,0,0,0,,
90.45989176350001,1300,,,,-0.066015625,-0.0298828125,-0.95859375,0.032279112328055755,1.6938443055978576,12.429172646279316,1.870812976147133,3434,0,23.11846069999932,11.607292515528453,50.209760460899005,0.14592943998823069,0.07327044019040235,0.3443330232153796,-0.22080543950034884,-0.5533986722433355,0.37109375,1.862067322466728,0.1,0,1,1,0,0,0,0,,
